ExperimentName	Subject	Session	Clock.Information	DataFile.Basename	Display.RefreshRate	ExperimentVersion	GoodBye.ACC	GoodBye.CRESP	GoodBye.DurationError	GoodBye.OnsetDelay	GoodBye.OnsetTime	GoodBye.OnsetToOnsetTime	GoodBye.RESP	GoodBye.RT	GoodBye.RTTime	Group	Instructions.ACC	Instructions.CRESP	Instructions.DurationError	Instructions.OnsetDelay	Instructions.OnsetTime	Instructions.OnsetToOnsetTime	Instructions.RESP	Instructions.RT	RandomSeed	RuntimeCapabilities	RuntimeVersion	RuntimeVersionExpected	SessionDate	SessionStartDateTimeUtc	SessionTime	StudioVersion	Trigger.DurationError	Trigger.OffsetTime	Trigger.OnsetDelay	Trigger.OnsetTime	Trigger.OnsetToOnsetTime	Block	BlockList	BlockList.Cycle	BlockList.Sample	PracticeMode	Procedure[Block]	Running[Block]	Trial	ConditionNumber	CorrectAnswer	CuePositionY	CuePositionY2	DurationOfFixation	DurationOfTarget	FlankerType	IntervalBetweenCueAndTarget	PracSlideFixationEnd.DurationError	PracSlideFixationEnd.OnsetDelay	PracSlideFixationEnd.OnsetTime	PracSlideFixationEnd.OnsetToOnsetTime	PracSlideFixationStart.DurationError	PracSlideFixationStart.OnsetDelay	PracSlideFixationStart.OnsetTime	PracSlideFixationStart.OnsetToOnsetTime	PracSlideTarget.ACC	PracSlideTarget.CRESP	PracSlideTarget.DurationError	PracSlideTarget.OnsetDelay	PracSlideTarget.OnsetTime	PracSlideTarget.OnsetToOnsetTime	PracSlideTarget.RESP	PracSlideTarget.RT	PracSlideTarget.RTTime	PracSlideTarget.Tag	Procedure[Trial]	Running[Trial]	sound	TargetDirection	TargetFilePath	TargetImage	TargetPosition	TargetType	TrialList	TrialList.Cycle	TrialList.Sample	TrialNumber	WarningType
ANT_fMRI_Run1	1	1	<?xml version="1.0"?>\n<Clock xmlns:dt="urn:schemas-microsoft-com:datatypes"><Description dt:dt="string">E-Prime Primary Realtime Clock</Description><StartTime><Timestamp dt:dt="int">0</Timestamp><DateUtc dt:dt="string">2017-05-20T05:19:03Z</DateUtc></StartTime><FrequencyChanges><FrequencyChange><Frequency dt:dt="r8">3312675</Frequency><Timestamp dt:dt="r8">54156963611</Timestamp><Current dt:dt="r8">0</Current><DateUtc dt:dt="string">2017-05-20T05:19:03Z</DateUtc></FrequencyChange></FrequencyChanges></Clock>\n	ANT_fMRI_Run1-1-1	60.003	1.0.0.84	0		-999999	6	366317	0	{ENTER}	6118	372435	1	0		-999999	87	3583	0	1	1435	-1676938189	Professional	2.0.10.356	2.0.10.356	05-20-2017	2017/5/20 5:19:04	13:19:04	2.0.10.252	-999999	12082	49	5067	0	1	1	1	1	?	BlockProc	BlockList	1	13	2	480	600	264	1000	congruent	450	-33	33	23466	0	-1	1	20083	1167	1	2	-999999	16	21850	0	2	584	22434		PracTrialProc	TrialList	?	right	stimuli\	rrrrr	480	up	26	1	1	26	double
ANT_fMRI_Run1	1	1	<?xml version="1.0"?>\n<Clock xmlns:dt="urn:schemas-microsoft-com:datatypes"><Description dt:dt="string">E-Prime Primary Realtime Clock</Description><StartTime><Timestamp dt:dt="int">0</Timestamp><DateUtc dt:dt="string">2017-05-20T05:19:03Z</DateUtc></StartTime><FrequencyChanges><FrequencyChange><Frequency dt:dt="r8">3312675</Frequency><Timestamp dt:dt="r8">54156963611</Timestamp><Current dt:dt="r8">0</Current><DateUtc dt:dt="string">2017-05-20T05:19:03Z</DateUtc></FrequencyChange></FrequencyChanges></Clock>\n	ANT_fMRI_Run1-1-1	60.003	1.0.0.84	0		-999999	6	366317	0	{ENTER}	6118	372435	1	0		-999999	87	3583	0	1	1435	-1676938189	Professional	2.0.10.356	2.0.10.356	05-20-2017	2017/5/20 5:19:04	13:19:04	2.0.10.252	-999999	12082	49	5067	0	1	1	1	1	?	BlockProc	BlockList	2	8	1	540	-140	705	1000	incongruent	450	-40	40	26633	0	-3	3	23700	833	1	1	-999999	2	25133	0	1	461	25594		PracTrialProc	TrialList	?	left	stimuli\	rrlrr	480	up	15	1	2	15	center
ANT_fMRI_Run1	1	1	<?xml version="1.0"?>\n<Clock xmlns:dt="urn:schemas-microsoft-com:datatypes"><Description dt:dt="string">E-Prime Primary Realtime Clock</Description><StartTime><Timestamp dt:dt="int">0</Timestamp><DateUtc dt:dt="string">2017-05-20T05:19:03Z</DateUtc></StartTime><FrequencyChanges><FrequencyChange><Frequency dt:dt="r8">3312675</Frequency><Timestamp dt:dt="r8">54156963611</Timestamp><Current dt:dt="r8">0</Current><DateUtc dt:dt="string">2017-05-20T05:19:03Z</DateUtc></FrequencyChange></FrequencyChanges></Clock>\n	ANT_fMRI_Run1-1-1	60.003	1.0.0.84	0		-999999	6	366317	0	{ENTER}	6118	372435	1	0		-999999	87	3583	0	1	1435	-1676938189	Professional	2.0.10.356	2.0.10.356	05-20-2017	2017/5/20 5:19:04	13:19:04	2.0.10.252	-999999	12082	49	5067	0	1	1	1	1	?	BlockProc	BlockList	3	8	2	540	-140	1079	1000	incongruent	450	-33	33	29866	0	-2	2	27300	483	1	2	-999999	15	28383	0	2	451	28834		PracTrialProc	TrialList	?	right	stimuli\	llrll	480	up	16	1	3	16	center
ANT_fMRI_Run1	1	1	<?xml version="1.0"?>\n<Clock xmlns:dt="urn:schemas-microsoft-com:datatypes"><Description dt:dt="string">E-Prime Primary Realtime Clock</Description><StartTime><Timestamp dt:dt="int">0</Timestamp><DateUtc dt:dt="string">2017-05-20T05:19:03Z</DateUtc></StartTime><FrequencyChanges><FrequencyChange><Frequency dt:dt="r8">3312675</Frequency><Timestamp dt:dt="r8">54156963611</Timestamp><Current dt:dt="r8">0</Current><DateUtc dt:dt="string">2017-05-20T05:19:03Z</DateUtc></FrequencyChange></FrequencyChanges></Clock>\n	ANT_fMRI_Run1-1-1	60.003	1.0.0.84	0		-999999	6	366317	0	{ENTER}	6118	372435	1	0		-999999	87	3583	0	1	1435	-1676938189	Professional	2.0.10.356	2.0.10.356	05-20-2017	2017/5/20 5:19:04	13:19:04	2.0.10.252	-999999	12082	49	5067	0	1	1	1	1	?	BlockProc	BlockList	4	21	2	480	-140	193	1000	neutral	450	-37	37	34366	0	-4	4	30916	1367	1	2	-999999	11	32883	0	2	447	33330		PracTrialProc	TrialList	?	right	stimuli\	ooroo	480	up	42	1	4	42	up
ANT_fMRI_Run1	1	1	<?xml version="1.0"?>\n<Clock xmlns:dt="urn:schemas-microsoft-com:datatypes"><Description dt:dt="string">E-Prime Primary Realtime Clock</Description><StartTime><Timestamp dt:dt="int">0</Timestamp><DateUtc dt:dt="string">2017-05-20T05:19:03Z</DateUtc></StartTime><FrequencyChanges><FrequencyChange><Frequency dt:dt="r8">3312675</Frequency><Timestamp dt:dt="r8">54156963611</Timestamp><Current dt:dt="r8">0</Current><DateUtc dt:dt="string">2017-05-20T05:19:03Z</DateUtc></FrequencyChange></FrequencyChanges></Clock>\n	ANT_fMRI_Run1-1-1	60.003	1.0.0.84	0		-999999	6	366317	0	{ENTER}	6118	372435	1	0		-999999	87	3583	0	1	1435	-1676938189	Professional	2.0.10.356	2.0.10.356	05-20-2017	2017/5/20 5:19:04	13:19:04	2.0.10.252	-999999	12082	49	5067	0	1	1	1	1	?	BlockProc	BlockList	5	22	2	600	-140	659	1000	congruent	450	-34	34	37499	0	-11	11	34533	866	1	2	-999999	3	35999	0	2	467	36466		PracTrialProc	TrialList	?	right	stimuli\	rrrrr	600	down	44	1	5	44	down
ANT_fMRI_Run1	1	1	<?xml version="1.0"?>\n<Clock xmlns:dt="urn:schemas-microsoft-com:datatypes"><Description dt:dt="string">E-Prime Primary Realtime Clock</Description><StartTime><Timestamp dt:dt="int">0</Timestamp><DateUtc dt:dt="string">2017-05-20T05:19:03Z</DateUtc></StartTime><FrequencyChanges><FrequencyChange><Frequency dt:dt="r8">3312675</Frequency><Timestamp dt:dt="r8">54156963611</Timestamp><Current dt:dt="r8">0</Current><DateUtc dt:dt="string">2017-05-20T05:19:03Z</DateUtc></FrequencyChange></FrequencyChanges></Clock>\n	ANT_fMRI_Run1-1-1	60.003	1.0.0.84	0		-999999	6	366317	0	{ENTER}	6118	372435	1	0		-999999	87	3583	0	1	1435	-1676938189	Professional	2.0.10.356	2.0.10.356	05-20-2017	2017/5/20 5:19:04	13:19:04	2.0.10.252	-999999	12082	49	5067	0	1	1	1	1	?	BlockProc	BlockList	6	7	2	540	-140	163	1000	congruent	450	-30	30	41599	0	-8	8	38132	1417	1	2	-999999	9	40149	0	2	421	40570		PracTrialProc	TrialList	?	right	stimuli\	rrrrr	480	up	14	1	6	14	center
ANT_fMRI_Run1	1	1	<?xml version="1.0"?>\n<Clock xmlns:dt="urn:schemas-microsoft-com:datatypes"><Description dt:dt="string">E-Prime Primary Realtime Clock</Description><StartTime><Timestamp dt:dt="int">0</Timestamp><DateUtc dt:dt="string">2017-05-20T05:19:03Z</DateUtc></StartTime><FrequencyChanges><FrequencyChange><Frequency dt:dt="r8">3312675</Frequency><Timestamp dt:dt="r8">54156963611</Timestamp><Current dt:dt="r8">0</Current><DateUtc dt:dt="string">2017-05-20T05:19:03Z</DateUtc></FrequencyChange></FrequencyChanges></Clock>\n	ANT_fMRI_Run1-1-1	60.003	1.0.0.84	0		-999999	6	366317	0	{ENTER}	6118	372435	1	0		-999999	87	3583	0	1	1435	-1676938189	Professional	2.0.10.356	2.0.10.356	05-20-2017	2017/5/20 5:19:04	13:19:04	2.0.10.252	-999999	12082	49	5067	0	1	1	1	1	?	BlockProc	BlockList	7	15	1	480	600	834	1000	neutral	450	-36	36	44549	0	0	0	41732	717	1	1	-999999	16	43049	0	1	465	43514		PracTrialProc	TrialList	?	left	stimuli\	ooloo	480	up	29	1	7	29	double
ANT_fMRI_Run1	1	1	<?xml version="1.0"?>\n<Clock xmlns:dt="urn:schemas-microsoft-com:datatypes"><Description dt:dt="string">E-Prime Primary Realtime Clock</Description><StartTime><Timestamp dt:dt="int">0</Timestamp><DateUtc dt:dt="string">2017-05-20T05:19:03Z</DateUtc></StartTime><FrequencyChanges><FrequencyChange><Frequency dt:dt="r8">3312675</Frequency><Timestamp dt:dt="r8">54156963611</Timestamp><Current dt:dt="r8">0</Current><DateUtc dt:dt="string">2017-05-20T05:19:03Z</DateUtc></FrequencyChange></FrequencyChanges></Clock>\n	ANT_fMRI_Run1-1-1	60.003	1.0.0.84	0		-999999	6	366317	0	{ENTER}	6118	372435	1	0		-999999	87	3583	0	1	1435	-1676938189	Professional	2.0.10.356	2.0.10.356	05-20-2017	2017/5/20 5:19:04	13:19:04	2.0.10.252	-999999	12082	49	5067	0	1	1	1	1	?	BlockProc	BlockList	8	3	2	-140	-140	623	1000	neutral	450	-36	36	48365	0	-2	2	45349	933	1	2	-999999	6	46882	0	2	448	47330		PracTrialProc	TrialList	?	right	stimuli\	ooroo	480	up	6	1	8	6	no
ANT_fMRI_Run1	1	1	<?xml version="1.0"?>\n<Clock xmlns:dt="urn:schemas-microsoft-com:datatypes"><Description dt:dt="string">E-Prime Primary Realtime Clock</Description><StartTime><Timestamp dt:dt="int">0</Timestamp><DateUtc dt:dt="string">2017-05-20T05:19:03Z</DateUtc></StartTime><FrequencyChanges><FrequencyChange><Frequency dt:dt="r8">3312675</Frequency><Timestamp dt:dt="r8">54156963611</Timestamp><Current dt:dt="r8">0</Current><DateUtc dt:dt="string">2017-05-20T05:19:03Z</DateUtc></FrequencyChange></FrequencyChanges></Clock>\n	ANT_fMRI_Run1-1-1	60.003	1.0.0.84	0		-999999	6	366317	0	{ENTER}	6118	372435	1	0		-999999	87	3583	0	1	1435	-1676938189	Professional	2.0.10.356	2.0.10.356	05-20-2017	2017/5/20 5:19:04	13:19:04	2.0.10.252	-999999	12082	49	5067	0	1	1	1	1	?	BlockProc	BlockList	9	17	2	600	480	11	1000	incongruent	450	0	29	52582	0	-13	13	48965	1450	1	2	-999999	13	51015	0	2	539	51554		PracTrialProc	TrialList	?	right	stimuli\	llrll	600	down	34	1	9	34	double
ANT_fMRI_Run1	1	1	<?xml version="1.0"?>\n<Clock xmlns:dt="urn:schemas-microsoft-com:datatypes"><Description dt:dt="string">E-Prime Primary Realtime Clock</Description><StartTime><Timestamp dt:dt="int">0</Timestamp><DateUtc dt:dt="string">2017-05-20T05:19:03Z</DateUtc></StartTime><FrequencyChanges><FrequencyChange><Frequency dt:dt="r8">3312675</Frequency><Timestamp dt:dt="r8">54156963611</Timestamp><Current dt:dt="r8">0</Current><DateUtc dt:dt="string">2017-05-20T05:19:03Z</DateUtc></FrequencyChange></FrequencyChanges></Clock>\n	ANT_fMRI_Run1-1-1	60.003	1.0.0.84	0		-999999	6	366317	0	{ENTER}	6118	372435	1	0		-999999	87	3583	0	1	1435	-1676938189	Professional	2.0.10.356	2.0.10.356	05-20-2017	2017/5/20 5:19:04	13:19:04	2.0.10.252	-999999	12082	49	5067	0	1	1	1	1	?	BlockProc	BlockList	10	10	1	540	-140	751	1000	congruent	450	-40	40	55465	0	-51	51	52615	600	1	1	-999999	13	53815	0	1	611	54426		PracTrialProc	TrialList	?	left	stimuli\	lllll	600	down	19	1	10	19	center
ANT_fMRI_Run1	1	1	<?xml version="1.0"?>\n<Clock xmlns:dt="urn:schemas-microsoft-com:datatypes"><Description dt:dt="string">E-Prime Primary Realtime Clock</Description><StartTime><Timestamp dt:dt="int">0</Timestamp><DateUtc dt:dt="string">2017-05-20T05:19:03Z</DateUtc></StartTime><FrequencyChanges><FrequencyChange><Frequency dt:dt="r8">3312675</Frequency><Timestamp dt:dt="r8">54156963611</Timestamp><Current dt:dt="r8">0</Current><DateUtc dt:dt="string">2017-05-20T05:19:03Z</DateUtc></FrequencyChange></FrequencyChanges></Clock>\n	ANT_fMRI_Run1-1-1	60.003	1.0.0.84	0		-999999	6	366317	0	{ENTER}	6118	372435	1	0		-999999	87	3583	0	1	1435	-1676938189	Professional	2.0.10.356	2.0.10.356	05-20-2017	2017/5/20 5:19:04	13:19:04	2.0.10.252	-999999	12082	49	5067	0	1	1	1	1	?	BlockProc	BlockList	11	6	2	-140	-140	472	1000	neutral	450	-43	43	59348	0	-6	6	56182	1100	1	2	-999999	1	57881	0	2	424	58305		PracTrialProc	TrialList	?	right	stimuli\	ooroo	600	down	12	1	11	12	no
ANT_fMRI_Run1	1	1	<?xml version="1.0"?>\n<Clock xmlns:dt="urn:schemas-microsoft-com:datatypes"><Description dt:dt="string">E-Prime Primary Realtime Clock</Description><StartTime><Timestamp dt:dt="int">0</Timestamp><DateUtc dt:dt="string">2017-05-20T05:19:03Z</DateUtc></StartTime><FrequencyChanges><FrequencyChange><Frequency dt:dt="r8">3312675</Frequency><Timestamp dt:dt="r8">54156963611</Timestamp><Current dt:dt="r8">0</Current><DateUtc dt:dt="string">2017-05-20T05:19:03Z</DateUtc></FrequencyChange></FrequencyChanges></Clock>\n	ANT_fMRI_Run1-1-1	60.003	1.0.0.84	0		-999999	6	366317	0	{ENTER}	6118	372435	1	0		-999999	87	3583	0	1	1435	-1676938189	Professional	2.0.10.356	2.0.10.356	05-20-2017	2017/5/20 5:19:04	13:19:04	2.0.10.252	-999999	12082	49	5067	0	1	1	1	1	?	BlockProc	BlockList	12	19	1	480	-140	497	1000	congruent	450	-42	42	62931	0	-4	4	59781	1184	1	1	-999999	9	61565	0	1	324	61889		PracTrialProc	TrialList	?	left	stimuli\	lllll	480	up	37	1	12	37	up
ANT_fMRI_Run1	1	1	<?xml version="1.0"?>\n<Clock xmlns:dt="urn:schemas-microsoft-com:datatypes"><Description dt:dt="string">E-Prime Primary Realtime Clock</Description><StartTime><Timestamp dt:dt="int">0</Timestamp><DateUtc dt:dt="string">2017-05-20T05:19:03Z</DateUtc></StartTime><FrequencyChanges><FrequencyChange><Frequency dt:dt="r8">3312675</Frequency><Timestamp dt:dt="r8">54156963611</Timestamp><Current dt:dt="r8">0</Current><DateUtc dt:dt="string">2017-05-20T05:19:03Z</DateUtc></FrequencyChange></FrequencyChanges></Clock>\n	ANT_fMRI_Run1-1-1	60.003	1.0.0.84	0		-999999	6	366317	0	{ENTER}	6118	372435	1	0		-999999	87	3583	0	1	1435	-1676938189	Professional	2.0.10.356	2.0.10.356	05-20-2017	2017/5/20 5:19:04	13:19:04	2.0.10.252	-999999	12082	49	5067	0	1	1	1	1	?	BlockProc	BlockList	13	19	2	480	-140	1193	1000	congruent	450	-31	31	65831	0	-12	12	63398	433	1	2	-999999	8	64431	0	2	370	64801		PracTrialProc	TrialList	?	right	stimuli\	rrrrr	480	up	38	1	13	38	up
ANT_fMRI_Run1	1	1	<?xml version="1.0"?>\n<Clock xmlns:dt="urn:schemas-microsoft-com:datatypes"><Description dt:dt="string">E-Prime Primary Realtime Clock</Description><StartTime><Timestamp dt:dt="int">0</Timestamp><DateUtc dt:dt="string">2017-05-20T05:19:03Z</DateUtc></StartTime><FrequencyChanges><FrequencyChange><Frequency dt:dt="r8">3312675</Frequency><Timestamp dt:dt="r8">54156963611</Timestamp><Current dt:dt="r8">0</Current><DateUtc dt:dt="string">2017-05-20T05:19:03Z</DateUtc></FrequencyChange></FrequencyChanges></Clock>\n	ANT_fMRI_Run1-1-1	60.003	1.0.0.84	0		-999999	6	366317	0	{ENTER}	6118	372435	1	0		-999999	87	3583	0	1	1435	-1676938189	Professional	2.0.10.356	2.0.10.356	05-20-2017	2017/5/20 5:19:04	13:19:04	2.0.10.252	-999999	12082	49	5067	0	1	1	1	1	?	BlockProc	BlockList	14	15	2	480	600	566	1000	neutral	450	-41	41	70081	0	-5	5	66998	1066	1	2	-999999	14	68664	0	2	377	69041		PracTrialProc	TrialList	?	right	stimuli\	ooroo	480	up	30	1	14	30	double
ANT_fMRI_Run1	1	1	<?xml version="1.0"?>\n<Clock xmlns:dt="urn:schemas-microsoft-com:datatypes"><Description dt:dt="string">E-Prime Primary Realtime Clock</Description><StartTime><Timestamp dt:dt="int">0</Timestamp><DateUtc dt:dt="string">2017-05-20T05:19:03Z</DateUtc></StartTime><FrequencyChanges><FrequencyChange><Frequency dt:dt="r8">3312675</Frequency><Timestamp dt:dt="r8">54156963611</Timestamp><Current dt:dt="r8">0</Current><DateUtc dt:dt="string">2017-05-20T05:19:03Z</DateUtc></FrequencyChange></FrequencyChanges></Clock>\n	ANT_fMRI_Run1-1-1	60.003	1.0.0.84	0		-999999	6	366317	0	{ENTER}	6118	372435	1	0		-999999	87	3583	0	1	1435	-1676938189	Professional	2.0.10.356	2.0.10.356	05-20-2017	2017/5/20 5:19:04	13:19:04	2.0.10.252	-999999	12082	49	5067	0	1	1	1	1	?	BlockProc	BlockList	15	24	2	600	-140	593	1000	neutral	450	-40	40	73664	0	-8	8	70614	1017	1	2	-999999	12	72231	0	2	394	72625		PracTrialProc	TrialList	?	right	stimuli\	ooroo	600	down	48	1	15	48	down
ANT_fMRI_Run1	1	1	<?xml version="1.0"?>\n<Clock xmlns:dt="urn:schemas-microsoft-com:datatypes"><Description dt:dt="string">E-Prime Primary Realtime Clock</Description><StartTime><Timestamp dt:dt="int">0</Timestamp><DateUtc dt:dt="string">2017-05-20T05:19:03Z</DateUtc></StartTime><FrequencyChanges><FrequencyChange><Frequency dt:dt="r8">3312675</Frequency><Timestamp dt:dt="r8">54156963611</Timestamp><Current dt:dt="r8">0</Current><DateUtc dt:dt="string">2017-05-20T05:19:03Z</DateUtc></FrequencyChange></FrequencyChanges></Clock>\n	ANT_fMRI_Run1-1-1	60.003	1.0.0.84	0		-999999	6	366317	0	{ENTER}	6118	372435	1	0		-999999	87	3583	0	1	1435	-1676938189	Professional	2.0.10.356	2.0.10.356	05-20-2017	2017/5/20 5:19:04	13:19:04	2.0.10.252	-999999	12082	49	5067	0	1	1	1	1	?	BlockProc	BlockList	16	12	1	540	-140	1163	1000	neutral	450	-33	33	76697	0	-14	14	74231	433	1	1	-999999	11	75264	0	1	401	75665		PracTrialProc	TrialList	?	left	stimuli\	ooloo	600	down	23	1	16	23	center
ANT_fMRI_Run1	1	1	<?xml version="1.0"?>\n<Clock xmlns:dt="urn:schemas-microsoft-com:datatypes"><Description dt:dt="string">E-Prime Primary Realtime Clock</Description><StartTime><Timestamp dt:dt="int">0</Timestamp><DateUtc dt:dt="string">2017-05-20T05:19:03Z</DateUtc></StartTime><FrequencyChanges><FrequencyChange><Frequency dt:dt="r8">3312675</Frequency><Timestamp dt:dt="r8">54156963611</Timestamp><Current dt:dt="r8">0</Current><DateUtc dt:dt="string">2017-05-20T05:19:03Z</DateUtc></FrequencyChange></FrequencyChanges></Clock>\n	ANT_fMRI_Run1-1-1	60.003	1.0.0.84	0		-999999	6	366317	0	{ENTER}	6118	372435	1	0		-999999	87	3583	0	1	1435	-1676938189	Professional	2.0.10.356	2.0.10.356	05-20-2017	2017/5/20 5:19:04	13:19:04	2.0.10.252	-999999	12082	49	5067	0	1	1	1	1	?	BlockProc	BlockList	17	11	2	540	-140	659	1000	incongruent	450	-29	29	80797	0	-4	4	77831	866	1	2	-999999	1	79297	0	2	472	79769		PracTrialProc	TrialList	?	right	stimuli\	llrll	600	down	22	1	17	22	center
ANT_fMRI_Run1	1	1	<?xml version="1.0"?>\n<Clock xmlns:dt="urn:schemas-microsoft-com:datatypes"><Description dt:dt="string">E-Prime Primary Realtime Clock</Description><StartTime><Timestamp dt:dt="int">0</Timestamp><DateUtc dt:dt="string">2017-05-20T05:19:03Z</DateUtc></StartTime><FrequencyChanges><FrequencyChange><Frequency dt:dt="r8">3312675</Frequency><Timestamp dt:dt="r8">54156963611</Timestamp><Current dt:dt="r8">0</Current><DateUtc dt:dt="string">2017-05-20T05:19:03Z</DateUtc></FrequencyChange></FrequencyChanges></Clock>\n	ANT_fMRI_Run1-1-1	60.003	1.0.0.84	0		-999999	6	366317	0	{ENTER}	6118	372435	1	0		-999999	87	3583	0	1	1435	-1676938189	Professional	2.0.10.356	2.0.10.356	05-20-2017	2017/5/20 5:19:04	13:19:04	2.0.10.252	-999999	12082	49	5067	0	1	1	1	1	?	BlockProc	BlockList	18	14	2	480	600	883	1000	incongruent	450	-36	36	84180	0	-3	3	81430	650	1	2	-999999	1	82680	0	2	465	83145		PracTrialProc	TrialList	?	right	stimuli\	llrll	480	up	28	1	18	28	double
ANT_fMRI_Run1	1	1	<?xml version="1.0"?>\n<Clock xmlns:dt="urn:schemas-microsoft-com:datatypes"><Description dt:dt="string">E-Prime Primary Realtime Clock</Description><StartTime><Timestamp dt:dt="int">0</Timestamp><DateUtc dt:dt="string">2017-05-20T05:19:03Z</DateUtc></StartTime><FrequencyChanges><FrequencyChange><Frequency dt:dt="r8">3312675</Frequency><Timestamp dt:dt="r8">54156963611</Timestamp><Current dt:dt="r8">0</Current><DateUtc dt:dt="string">2017-05-20T05:19:03Z</DateUtc></FrequencyChange></FrequencyChanges></Clock>\n	ANT_fMRI_Run1-1-1	60.003	1.0.0.84	0		-999999	6	366317	0	{ENTER}	6118	372435	1	0		-999999	87	3583	0	1	1435	-1676938189	Professional	2.0.10.356	2.0.10.356	05-20-2017	2017/5/20 5:19:04	13:19:04	2.0.10.252	-999999	12082	49	5067	0	1	1	1	1	?	BlockProc	BlockList	19	11	1	540	-140	281	1000	incongruent	450	-37	37	88397	0	-3	3	85030	1317	1	1	-999999	15	86947	0	1	414	87361		PracTrialProc	TrialList	?	left	stimuli\	rrlrr	600	down	21	1	19	21	center
ANT_fMRI_Run1	1	1	<?xml version="1.0"?>\n<Clock xmlns:dt="urn:schemas-microsoft-com:datatypes"><Description dt:dt="string">E-Prime Primary Realtime Clock</Description><StartTime><Timestamp dt:dt="int">0</Timestamp><DateUtc dt:dt="string">2017-05-20T05:19:03Z</DateUtc></StartTime><FrequencyChanges><FrequencyChange><Frequency dt:dt="r8">3312675</Frequency><Timestamp dt:dt="r8">54156963611</Timestamp><Current dt:dt="r8">0</Current><DateUtc dt:dt="string">2017-05-20T05:19:03Z</DateUtc></FrequencyChange></FrequencyChanges></Clock>\n	ANT_fMRI_Run1-1-1	60.003	1.0.0.84	0		-999999	6	366317	0	{ENTER}	6118	372435	1	0		-999999	87	3583	0	1	1435	-1676938189	Professional	2.0.10.356	2.0.10.356	05-20-2017	2017/5/20 5:19:04	13:19:04	2.0.10.252	-999999	12082	49	5067	0	1	1	1	1	?	BlockProc	BlockList	20	5	2	-140	-140	215	1000	incongruent	450	-40	40	92080	0	-6	6	88647	1283	1	2	-999999	15	90530	0	2	511	91041		PracTrialProc	TrialList	?	right	stimuli\	llrll	600	down	10	1	20	10	no
ANT_fMRI_Run1	1	1	<?xml version="1.0"?>\n<Clock xmlns:dt="urn:schemas-microsoft-com:datatypes"><Description dt:dt="string">E-Prime Primary Realtime Clock</Description><StartTime><Timestamp dt:dt="int">0</Timestamp><DateUtc dt:dt="string">2017-05-20T05:19:03Z</DateUtc></StartTime><FrequencyChanges><FrequencyChange><Frequency dt:dt="r8">3312675</Frequency><Timestamp dt:dt="r8">54156963611</Timestamp><Current dt:dt="r8">0</Current><DateUtc dt:dt="string">2017-05-20T05:19:03Z</DateUtc></FrequencyChange></FrequencyChanges></Clock>\n	ANT_fMRI_Run1-1-1	60.003	1.0.0.84	0		-999999	6	366317	0	{ENTER}	6118	372435	1	0		-999999	87	3583	0	1	1435	-1676938189	Professional	2.0.10.356	2.0.10.356	05-20-2017	2017/5/20 5:19:04	13:19:04	2.0.10.252	-999999	12082	49	5067	0	1	1	1	1	?	BlockProc	BlockList	21	2	1	-140	-140	475	1000	incongruent	450	-29	29	95413	0	-8	8	92263	1084	1	1	-999999	5	93946	0	1	439	94385		PracTrialProc	TrialList	?	left	stimuli\	rrlrr	480	up	3	1	21	3	no
ANT_fMRI_Run1	1	1	<?xml version="1.0"?>\n<Clock xmlns:dt="urn:schemas-microsoft-com:datatypes"><Description dt:dt="string">E-Prime Primary Realtime Clock</Description><StartTime><Timestamp dt:dt="int">0</Timestamp><DateUtc dt:dt="string">2017-05-20T05:19:03Z</DateUtc></StartTime><FrequencyChanges><FrequencyChange><Frequency dt:dt="r8">3312675</Frequency><Timestamp dt:dt="r8">54156963611</Timestamp><Current dt:dt="r8">0</Current><DateUtc dt:dt="string">2017-05-20T05:19:03Z</DateUtc></FrequencyChange></FrequencyChanges></Clock>\n	ANT_fMRI_Run1-1-1	60.003	1.0.0.84	0		-999999	6	366317	0	{ENTER}	6118	372435	1	0		-999999	87	3583	0	1	1435	-1676938189	Professional	2.0.10.356	2.0.10.356	05-20-2017	2017/5/20 5:19:04	13:19:04	2.0.10.252	-999999	12082	49	5067	0	1	1	1	1	?	BlockProc	BlockList	22	10	2	540	-140	1168	1000	congruent	450	-34	34	98330	0	-4	4	95863	417	1	2	-999999	6	96880	0	2	417	97297		PracTrialProc	TrialList	?	right	stimuli\	rrrrr	600	down	20	1	22	20	center
ANT_fMRI_Run1	1	1	<?xml version="1.0"?>\n<Clock xmlns:dt="urn:schemas-microsoft-com:datatypes"><Description dt:dt="string">E-Prime Primary Realtime Clock</Description><StartTime><Timestamp dt:dt="int">0</Timestamp><DateUtc dt:dt="string">2017-05-20T05:19:03Z</DateUtc></StartTime><FrequencyChanges><FrequencyChange><Frequency dt:dt="r8">3312675</Frequency><Timestamp dt:dt="r8">54156963611</Timestamp><Current dt:dt="r8">0</Current><DateUtc dt:dt="string">2017-05-20T05:19:03Z</DateUtc></FrequencyChange></FrequencyChanges></Clock>\n	ANT_fMRI_Run1-1-1	60.003	1.0.0.84	0		-999999	6	366317	0	{ENTER}	6118	372435	1	0		-999999	87	3583	0	1	1435	-1676938189	Professional	2.0.10.356	2.0.10.356	05-20-2017	2017/5/20 5:19:04	13:19:04	2.0.10.252	-999999	12082	49	5067	0	1	1	1	1	?	BlockProc	BlockList	23	22	1	600	-140	1219	1000	congruent	450	-31	31	101879	0	-16	16	99480	400	1	1	-999999	4	100479	0	1	370	100849		PracTrialProc	TrialList	?	left	stimuli\	lllll	600	down	43	1	23	43	down
ANT_fMRI_Run1	1	1	<?xml version="1.0"?>\n<Clock xmlns:dt="urn:schemas-microsoft-com:datatypes"><Description dt:dt="string">E-Prime Primary Realtime Clock</Description><StartTime><Timestamp dt:dt="int">0</Timestamp><DateUtc dt:dt="string">2017-05-20T05:19:03Z</DateUtc></StartTime><FrequencyChanges><FrequencyChange><Frequency dt:dt="r8">3312675</Frequency><Timestamp dt:dt="r8">54156963611</Timestamp><Current dt:dt="r8">0</Current><DateUtc dt:dt="string">2017-05-20T05:19:03Z</DateUtc></FrequencyChange></FrequencyChanges></Clock>\n	ANT_fMRI_Run1-1-1	60.003	1.0.0.84	0		-999999	6	366317	0	{ENTER}	6118	372435	1	0		-999999	87	3583	0	1	1435	-1676938189	Professional	2.0.10.356	2.0.10.356	05-20-2017	2017/5/20 5:19:04	13:19:04	2.0.10.252	-999999	12082	49	5067	0	1	1	1	1	?	BlockProc	BlockList	24	20	1	480	-140	57	1000	incongruent	450	0	30	106646	0	-12	12	103079	1500	1	1	-999999	7	105179	0	1	438	105617		PracTrialProc	TrialList	?	left	stimuli\	rrlrr	480	up	39	1	24	39	up
ANT_fMRI_Run1	1	1	<?xml version="1.0"?>\n<Clock xmlns:dt="urn:schemas-microsoft-com:datatypes"><Description dt:dt="string">E-Prime Primary Realtime Clock</Description><StartTime><Timestamp dt:dt="int">0</Timestamp><DateUtc dt:dt="string">2017-05-20T05:19:03Z</DateUtc></StartTime><FrequencyChanges><FrequencyChange><Frequency dt:dt="r8">3312675</Frequency><Timestamp dt:dt="r8">54156963611</Timestamp><Current dt:dt="r8">0</Current><DateUtc dt:dt="string">2017-05-20T05:19:03Z</DateUtc></FrequencyChange></FrequencyChanges></Clock>\n	ANT_fMRI_Run1-1-1	60.003	1.0.0.84	0		-999999	6	366317	0	{ENTER}	6118	372435	1	0		-999999	87	3583	0	1	1435	-1676938189	Professional	2.0.10.356	2.0.10.356	05-20-2017	2017/5/20 5:19:04	13:19:04	2.0.10.252	-999999	12082	49	5067	0	1	1	1	1	?	BlockProc	BlockList	25	21	1	480	-140	52	1000	neutral	450	0	38	110262	0	-6	6	106679	1550	1	1	-999999	4	108829	0	1	396	109225		PracTrialProc	TrialList	?	left	stimuli\	ooloo	480	up	41	1	25	41	up
ANT_fMRI_Run1	1	1	<?xml version="1.0"?>\n<Clock xmlns:dt="urn:schemas-microsoft-com:datatypes"><Description dt:dt="string">E-Prime Primary Realtime Clock</Description><StartTime><Timestamp dt:dt="int">0</Timestamp><DateUtc dt:dt="string">2017-05-20T05:19:03Z</DateUtc></StartTime><FrequencyChanges><FrequencyChange><Frequency dt:dt="r8">3312675</Frequency><Timestamp dt:dt="r8">54156963611</Timestamp><Current dt:dt="r8">0</Current><DateUtc dt:dt="string">2017-05-20T05:19:03Z</DateUtc></FrequencyChange></FrequencyChanges></Clock>\n	ANT_fMRI_Run1-1-1	60.003	1.0.0.84	0		-999999	6	366317	0	{ENTER}	6118	372435	1	0		-999999	87	3583	0	1	1435	-1676938189	Professional	2.0.10.356	2.0.10.356	05-20-2017	2017/5/20 5:19:04	13:19:04	2.0.10.252	-999999	12082	49	5067	0	1	1	1	1	?	BlockProc	BlockList	26	17	1	600	480	797	1000	incongruent	450	-32	32	113112	0	-20	20	110296	0	1	1	-999999	2	111546	0	1	535	112081		PracTrialProc	TrialList	?	left	stimuli\	rrlrr	600	down	33	1	26	33	double
ANT_fMRI_Run1	1	1	<?xml version="1.0"?>\n<Clock xmlns:dt="urn:schemas-microsoft-com:datatypes"><Description dt:dt="string">E-Prime Primary Realtime Clock</Description><StartTime><Timestamp dt:dt="int">0</Timestamp><DateUtc dt:dt="string">2017-05-20T05:19:03Z</DateUtc></StartTime><FrequencyChanges><FrequencyChange><Frequency dt:dt="r8">3312675</Frequency><Timestamp dt:dt="r8">54156963611</Timestamp><Current dt:dt="r8">0</Current><DateUtc dt:dt="string">2017-05-20T05:19:03Z</DateUtc></FrequencyChange></FrequencyChanges></Clock>\n	ANT_fMRI_Run1-1-1	60.003	1.0.0.84	0		-999999	6	366317	0	{ENTER}	6118	372435	1	0		-999999	87	3583	0	1	1435	-1676938189	Professional	2.0.10.356	2.0.10.356	05-20-2017	2017/5/20 5:19:04	13:19:04	2.0.10.252	-999999	12082	49	5067	0	1	1	1	1	?	BlockProc	BlockList	27	14	1	480	600	397	1000	incongruent	450	-32	32	117112	0	-2	2	113879	0	1	1	-999999	1	115645	0	1	436	116081		PracTrialProc	TrialList	?	left	stimuli\	rrlrr	480	up	27	1	27	27	double
ANT_fMRI_Run1	1	1	<?xml version="1.0"?>\n<Clock xmlns:dt="urn:schemas-microsoft-com:datatypes"><Description dt:dt="string">E-Prime Primary Realtime Clock</Description><StartTime><Timestamp dt:dt="int">0</Timestamp><DateUtc dt:dt="string">2017-05-20T05:19:03Z</DateUtc></StartTime><FrequencyChanges><FrequencyChange><Frequency dt:dt="r8">3312675</Frequency><Timestamp dt:dt="r8">54156963611</Timestamp><Current dt:dt="r8">0</Current><DateUtc dt:dt="string">2017-05-20T05:19:03Z</DateUtc></FrequencyChange></FrequencyChanges></Clock>\n	ANT_fMRI_Run1-1-1	60.003	1.0.0.84	0		-999999	6	366317	0	{ENTER}	6118	372435	1	0		-999999	87	3583	0	1	1435	-1676938189	Professional	2.0.10.356	2.0.10.356	05-20-2017	2017/5/20 5:19:04	13:19:04	2.0.10.252	-999999	12082	49	5067	0	1	1	1	1	?	BlockProc	BlockList	28	7	1	540	-140	849	1000	congruent	450	-39	39	120279	0	-2	2	117479	0	1	1	-999999	13	118845	0	1	396	119241		PracTrialProc	TrialList	?	left	stimuli\	lllll	480	up	13	1	28	13	center
ANT_fMRI_Run1	1	1	<?xml version="1.0"?>\n<Clock xmlns:dt="urn:schemas-microsoft-com:datatypes"><Description dt:dt="string">E-Prime Primary Realtime Clock</Description><StartTime><Timestamp dt:dt="int">0</Timestamp><DateUtc dt:dt="string">2017-05-20T05:19:03Z</DateUtc></StartTime><FrequencyChanges><FrequencyChange><Frequency dt:dt="r8">3312675</Frequency><Timestamp dt:dt="r8">54156963611</Timestamp><Current dt:dt="r8">0</Current><DateUtc dt:dt="string">2017-05-20T05:19:03Z</DateUtc></FrequencyChange></FrequencyChanges></Clock>\n	ANT_fMRI_Run1-1-1	60.003	1.0.0.84	0		-999999	6	366317	0	{ENTER}	6118	372435	1	0		-999999	87	3583	0	1	1435	-1676938189	Professional	2.0.10.356	2.0.10.356	05-20-2017	2017/5/20 5:19:04	13:19:04	2.0.10.252	-999999	12082	49	5067	0	1	1	1	1	?	BlockProc	BlockList	29	24	1	600	-140	858	1000	neutral	450	-30	30	123862	0	-6	6	121095	0	1	1	-999999	2	122462	0	1	371	122833		PracTrialProc	TrialList	?	left	stimuli\	ooloo	600	down	47	1	29	47	down
ANT_fMRI_Run1	1	1	<?xml version="1.0"?>\n<Clock xmlns:dt="urn:schemas-microsoft-com:datatypes"><Description dt:dt="string">E-Prime Primary Realtime Clock</Description><StartTime><Timestamp dt:dt="int">0</Timestamp><DateUtc dt:dt="string">2017-05-20T05:19:03Z</DateUtc></StartTime><FrequencyChanges><FrequencyChange><Frequency dt:dt="r8">3312675</Frequency><Timestamp dt:dt="r8">54156963611</Timestamp><Current dt:dt="r8">0</Current><DateUtc dt:dt="string">2017-05-20T05:19:03Z</DateUtc></FrequencyChange></FrequencyChanges></Clock>\n	ANT_fMRI_Run1-1-1	60.003	1.0.0.84	0		-999999	6	366317	0	{ENTER}	6118	372435	1	0		-999999	87	3583	0	1	1435	-1676938189	Professional	2.0.10.356	2.0.10.356	05-20-2017	2017/5/20 5:19:04	13:19:04	2.0.10.252	-999999	12082	49	5067	0	1	1	1	1	?	BlockProc	BlockList	30	4	1	-140	-140	872	1000	congruent	450	-38	38	127462	0	-5	5	124695	0	1	1	-999999	7	125978	0	1	447	126425		PracTrialProc	TrialList	?	left	stimuli\	lllll	600	down	7	1	30	7	no
ANT_fMRI_Run1	1	1	<?xml version="1.0"?>\n<Clock xmlns:dt="urn:schemas-microsoft-com:datatypes"><Description dt:dt="string">E-Prime Primary Realtime Clock</Description><StartTime><Timestamp dt:dt="int">0</Timestamp><DateUtc dt:dt="string">2017-05-20T05:19:03Z</DateUtc></StartTime><FrequencyChanges><FrequencyChange><Frequency dt:dt="r8">3312675</Frequency><Timestamp dt:dt="r8">54156963611</Timestamp><Current dt:dt="r8">0</Current><DateUtc dt:dt="string">2017-05-20T05:19:03Z</DateUtc></FrequencyChange></FrequencyChanges></Clock>\n	ANT_fMRI_Run1-1-1	60.003	1.0.0.84	0		-999999	6	366317	0	{ENTER}	6118	372435	1	0		-999999	87	3583	0	1	1435	-1676938189	Professional	2.0.10.356	2.0.10.356	05-20-2017	2017/5/20 5:19:04	13:19:04	2.0.10.252	-999999	12082	49	5067	0	1	1	1	1	?	BlockProc	BlockList	31	3	1	-140	-140	942	1000	neutral	450	-43	43	131011	0	-16	16	128312	0	1	1	-999999	15	129528	0	1	441	129969		PracTrialProc	TrialList	?	left	stimuli\	ooloo	480	up	5	1	31	5	no
ANT_fMRI_Run1	1	1	<?xml version="1.0"?>\n<Clock xmlns:dt="urn:schemas-microsoft-com:datatypes"><Description dt:dt="string">E-Prime Primary Realtime Clock</Description><StartTime><Timestamp dt:dt="int">0</Timestamp><DateUtc dt:dt="string">2017-05-20T05:19:03Z</DateUtc></StartTime><FrequencyChanges><FrequencyChange><Frequency dt:dt="r8">3312675</Frequency><Timestamp dt:dt="r8">54156963611</Timestamp><Current dt:dt="r8">0</Current><DateUtc dt:dt="string">2017-05-20T05:19:03Z</DateUtc></FrequencyChange></FrequencyChanges></Clock>\n	ANT_fMRI_Run1-1-1	60.003	1.0.0.84	0		-999999	6	366317	0	{ENTER}	6118	372435	1	0		-999999	87	3583	0	1	1435	-1676938189	Professional	2.0.10.356	2.0.10.356	05-20-2017	2017/5/20 5:19:04	13:19:04	2.0.10.252	-999999	12082	49	5067	0	1	1	1	1	?	BlockProc	BlockList	32	1	1	-140	-140	529	1000	congruent	450	-36	36	135028	0	-1	1	131911	0	1	1	-999999	12	133545	0	1	448	133993		PracTrialProc	TrialList	?	left	stimuli\	lllll	480	up	1	1	32	1	no
ANT_fMRI_Run1	1	1	<?xml version="1.0"?>\n<Clock xmlns:dt="urn:schemas-microsoft-com:datatypes"><Description dt:dt="string">E-Prime Primary Realtime Clock</Description><StartTime><Timestamp dt:dt="int">0</Timestamp><DateUtc dt:dt="string">2017-05-20T05:19:03Z</DateUtc></StartTime><FrequencyChanges><FrequencyChange><Frequency dt:dt="r8">3312675</Frequency><Timestamp dt:dt="r8">54156963611</Timestamp><Current dt:dt="r8">0</Current><DateUtc dt:dt="string">2017-05-20T05:19:03Z</DateUtc></FrequencyChange></FrequencyChanges></Clock>\n	ANT_fMRI_Run1-1-1	60.003	1.0.0.84	0		-999999	6	366317	0	{ENTER}	6118	372435	1	0		-999999	87	3583	0	1	1435	-1676938189	Professional	2.0.10.356	2.0.10.356	05-20-2017	2017/5/20 5:19:04	13:19:04	2.0.10.252	-999999	12082	49	5067	0	1	1	1	1	?	BlockProc	BlockList	33	4	2	-140	-140	1055	1000	congruent	450	-39	39	138111	0	-7	7	135528	0	1	2	-999999	7	136594	0	2	479	137073		PracTrialProc	TrialList	?	right	stimuli\	rrrrr	600	down	8	1	33	8	no
ANT_fMRI_Run1	1	1	<?xml version="1.0"?>\n<Clock xmlns:dt="urn:schemas-microsoft-com:datatypes"><Description dt:dt="string">E-Prime Primary Realtime Clock</Description><StartTime><Timestamp dt:dt="int">0</Timestamp><DateUtc dt:dt="string">2017-05-20T05:19:03Z</DateUtc></StartTime><FrequencyChanges><FrequencyChange><Frequency dt:dt="r8">3312675</Frequency><Timestamp dt:dt="r8">54156963611</Timestamp><Current dt:dt="r8">0</Current><DateUtc dt:dt="string">2017-05-20T05:19:03Z</DateUtc></FrequencyChange></FrequencyChanges></Clock>\n	ANT_fMRI_Run1-1-1	60.003	1.0.0.84	0		-999999	6	366317	0	{ENTER}	6118	372435	1	0		-999999	87	3583	0	1	1435	-1676938189	Professional	2.0.10.356	2.0.10.356	05-20-2017	2017/5/20 5:19:04	13:19:04	2.0.10.252	-999999	12082	49	5067	0	1	1	1	1	?	BlockProc	BlockList	34	23	2	600	-140	-399	1000	incongruent	450	499	36	143161	0	-1	1	139128	0	0	2	-2	2	141128	1000		0	0		PracTrialProc	TrialList	?	right	stimuli\	llrll	600	down	46	1	34	46	down
ANT_fMRI_Run1	1	1	<?xml version="1.0"?>\n<Clock xmlns:dt="urn:schemas-microsoft-com:datatypes"><Description dt:dt="string">E-Prime Primary Realtime Clock</Description><StartTime><Timestamp dt:dt="int">0</Timestamp><DateUtc dt:dt="string">2017-05-20T05:19:03Z</DateUtc></StartTime><FrequencyChanges><FrequencyChange><Frequency dt:dt="r8">3312675</Frequency><Timestamp dt:dt="r8">54156963611</Timestamp><Current dt:dt="r8">0</Current><DateUtc dt:dt="string">2017-05-20T05:19:03Z</DateUtc></FrequencyChange></FrequencyChanges></Clock>\n	ANT_fMRI_Run1-1-1	60.003	1.0.0.84	0		-999999	6	366317	0	{ENTER}	6118	372435	1	0		-999999	87	3583	0	1	1435	-1676938189	Professional	2.0.10.356	2.0.10.356	05-20-2017	2017/5/20 5:19:04	13:19:04	2.0.10.252	-999999	12082	49	5067	0	1	1	1	1	?	BlockProc	BlockList	35	20	2	480	-140	762	1000	incongruent	450	-35	35	145611	0	-468	468	143194	0	1	2	-999999	13	144078	0	2	499	144577		PracTrialProc	TrialList	?	right	stimuli\	llrll	480	up	40	1	35	40	up
ANT_fMRI_Run1	1	1	<?xml version="1.0"?>\n<Clock xmlns:dt="urn:schemas-microsoft-com:datatypes"><Description dt:dt="string">E-Prime Primary Realtime Clock</Description><StartTime><Timestamp dt:dt="int">0</Timestamp><DateUtc dt:dt="string">2017-05-20T05:19:03Z</DateUtc></StartTime><FrequencyChanges><FrequencyChange><Frequency dt:dt="r8">3312675</Frequency><Timestamp dt:dt="r8">54156963611</Timestamp><Current dt:dt="r8">0</Current><DateUtc dt:dt="string">2017-05-20T05:19:03Z</DateUtc></FrequencyChange></FrequencyChanges></Clock>\n	ANT_fMRI_Run1-1-1	60.003	1.0.0.84	0		-999999	6	366317	0	{ENTER}	6118	372435	1	0		-999999	87	3583	0	1	1435	-1676938189	Professional	2.0.10.356	2.0.10.356	05-20-2017	2017/5/20 5:19:04	13:19:04	2.0.10.252	-999999	12082	49	5067	0	1	1	1	1	?	BlockProc	BlockList	36	9	2	540	-140	857	1000	neutral	450	-39	39	149127	0	-6	6	146344	0	1	2	-999999	8	147627	0	2	462	148089		PracTrialProc	TrialList	?	right	stimuli\	ooroo	480	up	18	1	36	18	center
ANT_fMRI_Run1	1	1	<?xml version="1.0"?>\n<Clock xmlns:dt="urn:schemas-microsoft-com:datatypes"><Description dt:dt="string">E-Prime Primary Realtime Clock</Description><StartTime><Timestamp dt:dt="int">0</Timestamp><DateUtc dt:dt="string">2017-05-20T05:19:03Z</DateUtc></StartTime><FrequencyChanges><FrequencyChange><Frequency dt:dt="r8">3312675</Frequency><Timestamp dt:dt="r8">54156963611</Timestamp><Current dt:dt="r8">0</Current><DateUtc dt:dt="string">2017-05-20T05:19:03Z</DateUtc></FrequencyChange></FrequencyChanges></Clock>\n	ANT_fMRI_Run1-1-1	60.003	1.0.0.84	0		-999999	6	366317	0	{ENTER}	6118	372435	1	0		-999999	87	3583	0	1	1435	-1676938189	Professional	2.0.10.356	2.0.10.356	05-20-2017	2017/5/20 5:19:04	13:19:04	2.0.10.252	-999999	12082	49	5067	0	1	1	1	1	?	BlockProc	BlockList	37	18	1	600	480	941	1000	neutral	450	-28	28	152644	0	-16	16	149961	0	1	1	-999999	13	151177	0	1	440	151617		PracTrialProc	TrialList	?	left	stimuli\	ooloo	600	down	35	1	37	35	double
ANT_fMRI_Run1	1	1	<?xml version="1.0"?>\n<Clock xmlns:dt="urn:schemas-microsoft-com:datatypes"><Description dt:dt="string">E-Prime Primary Realtime Clock</Description><StartTime><Timestamp dt:dt="int">0</Timestamp><DateUtc dt:dt="string">2017-05-20T05:19:03Z</DateUtc></StartTime><FrequencyChanges><FrequencyChange><Frequency dt:dt="r8">3312675</Frequency><Timestamp dt:dt="r8">54156963611</Timestamp><Current dt:dt="r8">0</Current><DateUtc dt:dt="string">2017-05-20T05:19:03Z</DateUtc></FrequencyChange></FrequencyChanges></Clock>\n	ANT_fMRI_Run1-1-1	60.003	1.0.0.84	0		-999999	6	366317	0	{ENTER}	6118	372435	1	0		-999999	87	3583	0	1	1435	-1676938189	Professional	2.0.10.356	2.0.10.356	05-20-2017	2017/5/20 5:19:04	13:19:04	2.0.10.252	-999999	12082	49	5067	0	1	1	1	1	?	BlockProc	BlockList	38	18	2	600	480	879	1000	neutral	450	-39	39	156327	0	-3	3	153560	0	1	2	-999999	10	154894	0	2	394	155288		PracTrialProc	TrialList	?	right	stimuli\	ooroo	600	down	36	1	38	36	double
ANT_fMRI_Run1	1	1	<?xml version="1.0"?>\n<Clock xmlns:dt="urn:schemas-microsoft-com:datatypes"><Description dt:dt="string">E-Prime Primary Realtime Clock</Description><StartTime><Timestamp dt:dt="int">0</Timestamp><DateUtc dt:dt="string">2017-05-20T05:19:03Z</DateUtc></StartTime><FrequencyChanges><FrequencyChange><Frequency dt:dt="r8">3312675</Frequency><Timestamp dt:dt="r8">54156963611</Timestamp><Current dt:dt="r8">0</Current><DateUtc dt:dt="string">2017-05-20T05:19:03Z</DateUtc></FrequencyChange></FrequencyChanges></Clock>\n	ANT_fMRI_Run1-1-1	60.003	1.0.0.84	0		-999999	6	366317	0	{ENTER}	6118	372435	1	0		-999999	87	3583	0	1	1435	-1676938189	Professional	2.0.10.356	2.0.10.356	05-20-2017	2017/5/20 5:19:04	13:19:04	2.0.10.252	-999999	12082	49	5067	0	1	1	1	1	?	BlockProc	BlockList	39	5	1	-140	-140	674	1000	incongruent	450	-31	31	160127	0	-10	10	157177	0	1	1	-999999	4	158677	0	1	420	159097		PracTrialProc	TrialList	?	left	stimuli\	rrlrr	600	down	9	1	39	9	no
ANT_fMRI_Run1	1	1	<?xml version="1.0"?>\n<Clock xmlns:dt="urn:schemas-microsoft-com:datatypes"><Description dt:dt="string">E-Prime Primary Realtime Clock</Description><StartTime><Timestamp dt:dt="int">0</Timestamp><DateUtc dt:dt="string">2017-05-20T05:19:03Z</DateUtc></StartTime><FrequencyChanges><FrequencyChange><Frequency dt:dt="r8">3312675</Frequency><Timestamp dt:dt="r8">54156963611</Timestamp><Current dt:dt="r8">0</Current><DateUtc dt:dt="string">2017-05-20T05:19:03Z</DateUtc></FrequencyChange></FrequencyChanges></Clock>\n	ANT_fMRI_Run1-1-1	60.003	1.0.0.84	0		-999999	6	366317	0	{ENTER}	6118	372435	1	0		-999999	87	3583	0	1	1435	-1676938189	Professional	2.0.10.356	2.0.10.356	05-20-2017	2017/5/20 5:19:04	13:19:04	2.0.10.252	-999999	12082	49	5067	0	1	1	1	1	?	BlockProc	BlockList	40	16	2	600	480	1122	1000	congruent	450	-29	29	163277	0	-7	7	160777	0	1	2	-999999	1	161860	0	2	389	162249		PracTrialProc	TrialList	?	right	stimuli\	rrrrr	600	down	32	1	40	32	double
ANT_fMRI_Run1	1	1	<?xml version="1.0"?>\n<Clock xmlns:dt="urn:schemas-microsoft-com:datatypes"><Description dt:dt="string">E-Prime Primary Realtime Clock</Description><StartTime><Timestamp dt:dt="int">0</Timestamp><DateUtc dt:dt="string">2017-05-20T05:19:03Z</DateUtc></StartTime><FrequencyChanges><FrequencyChange><Frequency dt:dt="r8">3312675</Frequency><Timestamp dt:dt="r8">54156963611</Timestamp><Current dt:dt="r8">0</Current><DateUtc dt:dt="string">2017-05-20T05:19:03Z</DateUtc></FrequencyChange></FrequencyChanges></Clock>\n	ANT_fMRI_Run1-1-1	60.003	1.0.0.84	0		-999999	6	366317	0	{ENTER}	6118	372435	1	0		-999999	87	3583	0	1	1435	-1676938189	Professional	2.0.10.356	2.0.10.356	05-20-2017	2017/5/20 5:19:04	13:19:04	2.0.10.252	-999999	12082	49	5067	0	1	1	1	1	?	BlockProc	BlockList	41	6	1	-140	-140	682	1000	neutral	450	-38	38	167326	0	-7	7	164377	0	1	1	-999999	0	165860	0	1	428	166288		PracTrialProc	TrialList	?	left	stimuli\	ooloo	600	down	11	1	41	11	no
ANT_fMRI_Run1	1	1	<?xml version="1.0"?>\n<Clock xmlns:dt="urn:schemas-microsoft-com:datatypes"><Description dt:dt="string">E-Prime Primary Realtime Clock</Description><StartTime><Timestamp dt:dt="int">0</Timestamp><DateUtc dt:dt="string">2017-05-20T05:19:03Z</DateUtc></StartTime><FrequencyChanges><FrequencyChange><Frequency dt:dt="r8">3312675</Frequency><Timestamp dt:dt="r8">54156963611</Timestamp><Current dt:dt="r8">0</Current><DateUtc dt:dt="string">2017-05-20T05:19:03Z</DateUtc></FrequencyChange></FrequencyChanges></Clock>\n	ANT_fMRI_Run1-1-1	60.003	1.0.0.84	0		-999999	6	366317	0	{ENTER}	6118	372435	1	0		-999999	87	3583	0	1	1435	-1676938189	Professional	2.0.10.356	2.0.10.356	05-20-2017	2017/5/20 5:19:04	13:19:04	2.0.10.252	-999999	12082	49	5067	0	1	1	1	1	?	BlockProc	BlockList	42	12	2	540	-140	359	1000	neutral	450	-28	28	171243	0	-6	6	167976	0	1	2	-999999	5	169810	0	2	406	170216		PracTrialProc	TrialList	?	right	stimuli\	ooroo	600	down	24	1	42	24	center
ANT_fMRI_Run1	1	1	<?xml version="1.0"?>\n<Clock xmlns:dt="urn:schemas-microsoft-com:datatypes"><Description dt:dt="string">E-Prime Primary Realtime Clock</Description><StartTime><Timestamp dt:dt="int">0</Timestamp><DateUtc dt:dt="string">2017-05-20T05:19:03Z</DateUtc></StartTime><FrequencyChanges><FrequencyChange><Frequency dt:dt="r8">3312675</Frequency><Timestamp dt:dt="r8">54156963611</Timestamp><Current dt:dt="r8">0</Current><DateUtc dt:dt="string">2017-05-20T05:19:03Z</DateUtc></FrequencyChange></FrequencyChanges></Clock>\n	ANT_fMRI_Run1-1-1	60.003	1.0.0.84	0		-999999	6	366317	0	{ENTER}	6118	372435	1	0		-999999	87	3583	0	1	1435	-1676938189	Professional	2.0.10.356	2.0.10.356	05-20-2017	2017/5/20 5:19:04	13:19:04	2.0.10.252	-999999	12082	49	5067	0	1	1	1	1	?	BlockProc	BlockList	43	23	1	600	-140	903	1000	incongruent	450	-30	30	174309	0	-2	2	171576	0	1	1	-999999	9	172893	0	1	387	173280		PracTrialProc	TrialList	?	left	stimuli\	rrlrr	600	down	45	1	43	45	down
ANT_fMRI_Run1	1	1	<?xml version="1.0"?>\n<Clock xmlns:dt="urn:schemas-microsoft-com:datatypes"><Description dt:dt="string">E-Prime Primary Realtime Clock</Description><StartTime><Timestamp dt:dt="int">0</Timestamp><DateUtc dt:dt="string">2017-05-20T05:19:03Z</DateUtc></StartTime><FrequencyChanges><FrequencyChange><Frequency dt:dt="r8">3312675</Frequency><Timestamp dt:dt="r8">54156963611</Timestamp><Current dt:dt="r8">0</Current><DateUtc dt:dt="string">2017-05-20T05:19:03Z</DateUtc></FrequencyChange></FrequencyChanges></Clock>\n	ANT_fMRI_Run1-1-1	60.003	1.0.0.84	0		-999999	6	366317	0	{ENTER}	6118	372435	1	0		-999999	87	3583	0	1	1435	-1676938189	Professional	2.0.10.356	2.0.10.356	05-20-2017	2017/5/20 5:19:04	13:19:04	2.0.10.252	-999999	12082	49	5067	0	1	1	1	1	?	BlockProc	BlockList	44	1	2	-140	-140	942	1000	congruent	450	-38	38	177893	0	-11	11	175193	0	1	2	-999999	16	176376	0	2	480	176856		PracTrialProc	TrialList	?	right	stimuli\	rrrrr	480	up	2	1	44	2	no
ANT_fMRI_Run1	1	1	<?xml version="1.0"?>\n<Clock xmlns:dt="urn:schemas-microsoft-com:datatypes"><Description dt:dt="string">E-Prime Primary Realtime Clock</Description><StartTime><Timestamp dt:dt="int">0</Timestamp><DateUtc dt:dt="string">2017-05-20T05:19:03Z</DateUtc></StartTime><FrequencyChanges><FrequencyChange><Frequency dt:dt="r8">3312675</Frequency><Timestamp dt:dt="r8">54156963611</Timestamp><Current dt:dt="r8">0</Current><DateUtc dt:dt="string">2017-05-20T05:19:03Z</DateUtc></FrequencyChange></FrequencyChanges></Clock>\n	ANT_fMRI_Run1-1-1	60.003	1.0.0.84	0		-999999	6	366317	0	{ENTER}	6118	372435	1	0		-999999	87	3583	0	1	1435	-1676938189	Professional	2.0.10.356	2.0.10.356	05-20-2017	2017/5/20 5:19:04	13:19:04	2.0.10.252	-999999	12082	49	5067	0	1	1	1	1	?	BlockProc	BlockList	45	13	1	480	600	834	1000	congruent	450	-34	34	181609	0	-12	12	178809	0	1	1	-999999	13	180276	0	1	300	180576		PracTrialProc	TrialList	?	left	stimuli\	lllll	480	up	25	1	45	25	double
ANT_fMRI_Run1	1	1	<?xml version="1.0"?>\n<Clock xmlns:dt="urn:schemas-microsoft-com:datatypes"><Description dt:dt="string">E-Prime Primary Realtime Clock</Description><StartTime><Timestamp dt:dt="int">0</Timestamp><DateUtc dt:dt="string">2017-05-20T05:19:03Z</DateUtc></StartTime><FrequencyChanges><FrequencyChange><Frequency dt:dt="r8">3312675</Frequency><Timestamp dt:dt="r8">54156963611</Timestamp><Current dt:dt="r8">0</Current><DateUtc dt:dt="string">2017-05-20T05:19:03Z</DateUtc></FrequencyChange></FrequencyChanges></Clock>\n	ANT_fMRI_Run1-1-1	60.003	1.0.0.84	0		-999999	6	366317	0	{ENTER}	6118	372435	1	0		-999999	87	3583	0	1	1435	-1676938189	Professional	2.0.10.356	2.0.10.356	05-20-2017	2017/5/20 5:19:04	13:19:04	2.0.10.252	-999999	12082	49	5067	0	1	1	1	1	?	BlockProc	BlockList	46	2	2	-140	-140	747	1000	incongruent	450	-38	38	185309	0	0	0	182409	0	1	2	-999999	10	183826	0	2	446	184272		PracTrialProc	TrialList	?	right	stimuli\	llrll	480	up	4	1	46	4	no
ANT_fMRI_Run1	1	1	<?xml version="1.0"?>\n<Clock xmlns:dt="urn:schemas-microsoft-com:datatypes"><Description dt:dt="string">E-Prime Primary Realtime Clock</Description><StartTime><Timestamp dt:dt="int">0</Timestamp><DateUtc dt:dt="string">2017-05-20T05:19:03Z</DateUtc></StartTime><FrequencyChanges><FrequencyChange><Frequency dt:dt="r8">3312675</Frequency><Timestamp dt:dt="r8">54156963611</Timestamp><Current dt:dt="r8">0</Current><DateUtc dt:dt="string">2017-05-20T05:19:03Z</DateUtc></FrequencyChange></FrequencyChanges></Clock>\n	ANT_fMRI_Run1-1-1	60.003	1.0.0.84	0		-999999	6	366317	0	{ENTER}	6118	372435	1	0		-999999	87	3583	0	1	1435	-1676938189	Professional	2.0.10.356	2.0.10.356	05-20-2017	2017/5/20 5:19:04	13:19:04	2.0.10.252	-999999	12082	49	5067	0	1	1	1	1	?	BlockProc	BlockList	47	9	1	540	-140	341	1000	neutral	450	-30	30	189309	0	-8	8	186026	0	1	1	-999999	3	187942	0	1	338	188280		PracTrialProc	TrialList	?	left	stimuli\	ooloo	480	up	17	1	47	17	center
ANT_fMRI_Run1	1	1	<?xml version="1.0"?>\n<Clock xmlns:dt="urn:schemas-microsoft-com:datatypes"><Description dt:dt="string">E-Prime Primary Realtime Clock</Description><StartTime><Timestamp dt:dt="int">0</Timestamp><DateUtc dt:dt="string">2017-05-20T05:19:03Z</DateUtc></StartTime><FrequencyChanges><FrequencyChange><Frequency dt:dt="r8">3312675</Frequency><Timestamp dt:dt="r8">54156963611</Timestamp><Current dt:dt="r8">0</Current><DateUtc dt:dt="string">2017-05-20T05:19:03Z</DateUtc></FrequencyChange></FrequencyChanges></Clock>\n	ANT_fMRI_Run1-1-1	60.003	1.0.0.84	0		-999999	6	366317	0	{ENTER}	6118	372435	1	0		-999999	87	3583	0	1	1435	-1676938189	Professional	2.0.10.356	2.0.10.356	05-20-2017	2017/5/20 5:19:04	13:19:04	2.0.10.252	-999999	12082	49	5067	0	1	1	1	1	?	BlockProc	BlockList	48	16	1	600	480	783	1000	congruent	450	-36	36	192475	0	-5	5	189625	0	1	1	-999999	3	191075	0	1	365	191440		PracTrialProc	TrialList	?	left	stimuli\	lllll	600	down	31	1	48	31	double
ANT_fMRI_Run1	1	1	<?xml version="1.0"?>\n<Clock xmlns:dt="urn:schemas-microsoft-com:datatypes"><Description dt:dt="string">E-Prime Primary Realtime Clock</Description><StartTime><Timestamp dt:dt="int">0</Timestamp><DateUtc dt:dt="string">2017-05-20T05:19:03Z</DateUtc></StartTime><FrequencyChanges><FrequencyChange><Frequency dt:dt="r8">3312675</Frequency><Timestamp dt:dt="r8">54156963611</Timestamp><Current dt:dt="r8">0</Current><DateUtc dt:dt="string">2017-05-20T05:19:03Z</DateUtc></FrequencyChange></FrequencyChanges></Clock>\n	ANT_fMRI_Run1-1-1	60.003	1.0.0.84	0		-999999	6	366317	0	{ENTER}	6118	372435	1	0		-999999	87	3583	0	1	1435	-1676938189	Professional	2.0.10.356	2.0.10.356	05-20-2017	2017/5/20 5:19:04	13:19:04	2.0.10.252	-999999	12082	49	5067	0	2	2	1	2	?	BlockProc	BlockList	1	21	1	480	-140	779	1000	neutral	450	-28	28	196075	0	-3	3	193225	0	1	1	-999999	5	194742	0	1	306	195048		PracTrialProc	TrialList	?	left	stimuli\	ooloo	480	up	41	2	49	41	up
ANT_fMRI_Run1	1	1	<?xml version="1.0"?>\n<Clock xmlns:dt="urn:schemas-microsoft-com:datatypes"><Description dt:dt="string">E-Prime Primary Realtime Clock</Description><StartTime><Timestamp dt:dt="int">0</Timestamp><DateUtc dt:dt="string">2017-05-20T05:19:03Z</DateUtc></StartTime><FrequencyChanges><FrequencyChange><Frequency dt:dt="r8">3312675</Frequency><Timestamp dt:dt="r8">54156963611</Timestamp><Current dt:dt="r8">0</Current><DateUtc dt:dt="string">2017-05-20T05:19:03Z</DateUtc></FrequencyChange></FrequencyChanges></Clock>\n	ANT_fMRI_Run1-1-1	60.003	1.0.0.84	0		-999999	6	366317	0	{ENTER}	6118	372435	1	0		-999999	87	3583	0	1	1435	-1676938189	Professional	2.0.10.356	2.0.10.356	05-20-2017	2017/5/20 5:19:04	13:19:04	2.0.10.252	-999999	12082	49	5067	0	2	2	1	2	?	BlockProc	BlockList	2	11	2	540	-140	837	1000	incongruent	450	-34	34	199625	0	-16	16	196842	0	1	2	-999999	3	198125	0	2	467	198592		PracTrialProc	TrialList	?	right	stimuli\	llrll	600	down	22	2	50	22	center
ANT_fMRI_Run1	1	1	<?xml version="1.0"?>\n<Clock xmlns:dt="urn:schemas-microsoft-com:datatypes"><Description dt:dt="string">E-Prime Primary Realtime Clock</Description><StartTime><Timestamp dt:dt="int">0</Timestamp><DateUtc dt:dt="string">2017-05-20T05:19:03Z</DateUtc></StartTime><FrequencyChanges><FrequencyChange><Frequency dt:dt="r8">3312675</Frequency><Timestamp dt:dt="r8">54156963611</Timestamp><Current dt:dt="r8">0</Current><DateUtc dt:dt="string">2017-05-20T05:19:03Z</DateUtc></FrequencyChange></FrequencyChanges></Clock>\n	ANT_fMRI_Run1-1-1	60.003	1.0.0.84	0		-999999	6	366317	0	{ENTER}	6118	372435	1	0		-999999	87	3583	0	1	1435	-1676938189	Professional	2.0.10.356	2.0.10.356	05-20-2017	2017/5/20 5:19:04	13:19:04	2.0.10.252	-999999	12082	49	5067	0	2	2	1	2	?	BlockProc	BlockList	3	3	1	-140	-140	932	1000	neutral	450	-38	38	203141	0	-14	14	200442	0	1	1	-999999	8	201708	0	1	396	202104		PracTrialProc	TrialList	?	left	stimuli\	ooloo	480	up	5	2	51	5	no
ANT_fMRI_Run1	1	1	<?xml version="1.0"?>\n<Clock xmlns:dt="urn:schemas-microsoft-com:datatypes"><Description dt:dt="string">E-Prime Primary Realtime Clock</Description><StartTime><Timestamp dt:dt="int">0</Timestamp><DateUtc dt:dt="string">2017-05-20T05:19:03Z</DateUtc></StartTime><FrequencyChanges><FrequencyChange><Frequency dt:dt="r8">3312675</Frequency><Timestamp dt:dt="r8">54156963611</Timestamp><Current dt:dt="r8">0</Current><DateUtc dt:dt="string">2017-05-20T05:19:03Z</DateUtc></FrequencyChange></FrequencyChanges></Clock>\n	ANT_fMRI_Run1-1-1	60.003	1.0.0.84	0		-999999	6	366317	0	{ENTER}	6118	372435	1	0		-999999	87	3583	0	1	1435	-1676938189	Professional	2.0.10.356	2.0.10.356	05-20-2017	2017/5/20 5:19:04	13:19:04	2.0.10.252	-999999	12082	49	5067	0	2	2	1	2	?	BlockProc	BlockList	4	24	2	600	-140	103	1000	neutral	450	-3	40	207575	0	-6	6	204041	0	1	2	-999999	4	206225	0	2	311	206536		PracTrialProc	TrialList	?	right	stimuli\	ooroo	600	down	48	2	52	48	down
ANT_fMRI_Run1	1	1	<?xml version="1.0"?>\n<Clock xmlns:dt="urn:schemas-microsoft-com:datatypes"><Description dt:dt="string">E-Prime Primary Realtime Clock</Description><StartTime><Timestamp dt:dt="int">0</Timestamp><DateUtc dt:dt="string">2017-05-20T05:19:03Z</DateUtc></StartTime><FrequencyChanges><FrequencyChange><Frequency dt:dt="r8">3312675</Frequency><Timestamp dt:dt="r8">54156963611</Timestamp><Current dt:dt="r8">0</Current><DateUtc dt:dt="string">2017-05-20T05:19:03Z</DateUtc></FrequencyChange></FrequencyChanges></Clock>\n	ANT_fMRI_Run1-1-1	60.003	1.0.0.84	0		-999999	6	366317	0	{ENTER}	6118	372435	1	0		-999999	87	3583	0	1	1435	-1676938189	Professional	2.0.10.356	2.0.10.356	05-20-2017	2017/5/20 5:19:04	13:19:04	2.0.10.252	-999999	12082	49	5067	0	2	2	1	2	?	BlockProc	BlockList	5	2	1	-140	-140	210	1000	incongruent	450	-43	43	211074	0	-3	3	207641	0	1	1	-999999	4	209574	0	1	458	210032		PracTrialProc	TrialList	?	left	stimuli\	rrlrr	480	up	3	2	53	3	no
ANT_fMRI_Run1	1	1	<?xml version="1.0"?>\n<Clock xmlns:dt="urn:schemas-microsoft-com:datatypes"><Description dt:dt="string">E-Prime Primary Realtime Clock</Description><StartTime><Timestamp dt:dt="int">0</Timestamp><DateUtc dt:dt="string">2017-05-20T05:19:03Z</DateUtc></StartTime><FrequencyChanges><FrequencyChange><Frequency dt:dt="r8">3312675</Frequency><Timestamp dt:dt="r8">54156963611</Timestamp><Current dt:dt="r8">0</Current><DateUtc dt:dt="string">2017-05-20T05:19:03Z</DateUtc></FrequencyChange></FrequencyChanges></Clock>\n	ANT_fMRI_Run1-1-1	60.003	1.0.0.84	0		-999999	6	366317	0	{ENTER}	6118	372435	1	0		-999999	87	3583	0	1	1435	-1676938189	Professional	2.0.10.356	2.0.10.356	05-20-2017	2017/5/20 5:19:04	13:19:04	2.0.10.252	-999999	12082	49	5067	0	2	2	1	2	?	BlockProc	BlockList	6	5	1	-140	-140	986	1000	incongruent	450	-28	28	213891	0	0	0	211241	0	1	1	-999999	9	212341	0	1	523	212864		PracTrialProc	TrialList	?	left	stimuli\	rrlrr	600	down	9	2	54	9	no
ANT_fMRI_Run1	1	1	<?xml version="1.0"?>\n<Clock xmlns:dt="urn:schemas-microsoft-com:datatypes"><Description dt:dt="string">E-Prime Primary Realtime Clock</Description><StartTime><Timestamp dt:dt="int">0</Timestamp><DateUtc dt:dt="string">2017-05-20T05:19:03Z</DateUtc></StartTime><FrequencyChanges><FrequencyChange><Frequency dt:dt="r8">3312675</Frequency><Timestamp dt:dt="r8">54156963611</Timestamp><Current dt:dt="r8">0</Current><DateUtc dt:dt="string">2017-05-20T05:19:03Z</DateUtc></FrequencyChange></FrequencyChanges></Clock>\n	ANT_fMRI_Run1-1-1	60.003	1.0.0.84	0		-999999	6	366317	0	{ENTER}	6118	372435	1	0		-999999	87	3583	0	1	1435	-1676938189	Professional	2.0.10.356	2.0.10.356	05-20-2017	2017/5/20 5:19:04	13:19:04	2.0.10.252	-999999	12082	49	5067	0	2	2	1	2	?	BlockProc	BlockList	7	20	2	480	-140	389	1000	incongruent	450	-36	36	218107	0	-9	9	214858	0	0	2	-999999	12	216641	0	1	431	217072		PracTrialProc	TrialList	?	right	stimuli\	llrll	480	up	40	2	55	40	up
ANT_fMRI_Run1	1	1	<?xml version="1.0"?>\n<Clock xmlns:dt="urn:schemas-microsoft-com:datatypes"><Description dt:dt="string">E-Prime Primary Realtime Clock</Description><StartTime><Timestamp dt:dt="int">0</Timestamp><DateUtc dt:dt="string">2017-05-20T05:19:03Z</DateUtc></StartTime><FrequencyChanges><FrequencyChange><Frequency dt:dt="r8">3312675</Frequency><Timestamp dt:dt="r8">54156963611</Timestamp><Current dt:dt="r8">0</Current><DateUtc dt:dt="string">2017-05-20T05:19:03Z</DateUtc></FrequencyChange></FrequencyChanges></Clock>\n	ANT_fMRI_Run1-1-1	60.003	1.0.0.84	0		-999999	6	366317	0	{ENTER}	6118	372435	1	0		-999999	87	3583	0	1	1435	-1676938189	Professional	2.0.10.356	2.0.10.356	05-20-2017	2017/5/20 5:19:04	13:19:04	2.0.10.252	-999999	12082	49	5067	0	2	2	1	2	?	BlockProc	BlockList	8	20	1	480	-140	1070	1000	incongruent	450	-33	33	221024	0	-14	14	218474	0	1	1	-999999	2	219607	0	1	385	219992		PracTrialProc	TrialList	?	left	stimuli\	rrlrr	480	up	39	2	56	39	up
ANT_fMRI_Run1	1	1	<?xml version="1.0"?>\n<Clock xmlns:dt="urn:schemas-microsoft-com:datatypes"><Description dt:dt="string">E-Prime Primary Realtime Clock</Description><StartTime><Timestamp dt:dt="int">0</Timestamp><DateUtc dt:dt="string">2017-05-20T05:19:03Z</DateUtc></StartTime><FrequencyChanges><FrequencyChange><Frequency dt:dt="r8">3312675</Frequency><Timestamp dt:dt="r8">54156963611</Timestamp><Current dt:dt="r8">0</Current><DateUtc dt:dt="string">2017-05-20T05:19:03Z</DateUtc></FrequencyChange></FrequencyChanges></Clock>\n	ANT_fMRI_Run1-1-1	60.003	1.0.0.84	0		-999999	6	366317	0	{ENTER}	6118	372435	1	0		-999999	87	3583	0	1	1435	-1676938189	Professional	2.0.10.356	2.0.10.356	05-20-2017	2017/5/20 5:19:04	13:19:04	2.0.10.252	-999999	12082	49	5067	0	2	2	1	2	?	BlockProc	BlockList	9	23	2	600	-140	710	1000	incongruent	450	-31	31	224990	0	-13	13	222074	0	1	2	-999999	9	223490	0	2	470	223960		PracTrialProc	TrialList	?	right	stimuli\	llrll	600	down	46	2	57	46	down
ANT_fMRI_Run1	1	1	<?xml version="1.0"?>\n<Clock xmlns:dt="urn:schemas-microsoft-com:datatypes"><Description dt:dt="string">E-Prime Primary Realtime Clock</Description><StartTime><Timestamp dt:dt="int">0</Timestamp><DateUtc dt:dt="string">2017-05-20T05:19:03Z</DateUtc></StartTime><FrequencyChanges><FrequencyChange><Frequency dt:dt="r8">3312675</Frequency><Timestamp dt:dt="r8">54156963611</Timestamp><Current dt:dt="r8">0</Current><DateUtc dt:dt="string">2017-05-20T05:19:03Z</DateUtc></FrequencyChange></FrequencyChanges></Clock>\n	ANT_fMRI_Run1-1-1	60.003	1.0.0.84	0		-999999	6	366317	0	{ENTER}	6118	372435	1	0		-999999	87	3583	0	1	1435	-1676938189	Professional	2.0.10.356	2.0.10.356	05-20-2017	2017/5/20 5:19:04	13:19:04	2.0.10.252	-999999	12082	49	5067	0	2	2	1	2	?	BlockProc	BlockList	10	10	2	540	-140	885	1000	congruent	450	-41	41	228440	0	-5	5	225674	0	1	2	-999999	16	227007	0	2	393	227400		PracTrialProc	TrialList	?	right	stimuli\	rrrrr	600	down	20	2	58	20	center
ANT_fMRI_Run1	1	1	<?xml version="1.0"?>\n<Clock xmlns:dt="urn:schemas-microsoft-com:datatypes"><Description dt:dt="string">E-Prime Primary Realtime Clock</Description><StartTime><Timestamp dt:dt="int">0</Timestamp><DateUtc dt:dt="string">2017-05-20T05:19:03Z</DateUtc></StartTime><FrequencyChanges><FrequencyChange><Frequency dt:dt="r8">3312675</Frequency><Timestamp dt:dt="r8">54156963611</Timestamp><Current dt:dt="r8">0</Current><DateUtc dt:dt="string">2017-05-20T05:19:03Z</DateUtc></FrequencyChange></FrequencyChanges></Clock>\n	ANT_fMRI_Run1-1-1	60.003	1.0.0.84	0		-999999	6	366317	0	{ENTER}	6118	372435	1	0		-999999	87	3583	0	1	1435	-1676938189	Professional	2.0.10.356	2.0.10.356	05-20-2017	2017/5/20 5:19:04	13:19:04	2.0.10.252	-999999	12082	49	5067	0	2	2	1	2	?	BlockProc	BlockList	11	15	2	480	600	1117	1000	neutral	450	-40	40	231807	0	-6	6	229290	0	1	2	-999999	1	230357	0	2	411	230768		PracTrialProc	TrialList	?	right	stimuli\	ooroo	480	up	30	2	59	30	double
ANT_fMRI_Run1	1	1	<?xml version="1.0"?>\n<Clock xmlns:dt="urn:schemas-microsoft-com:datatypes"><Description dt:dt="string">E-Prime Primary Realtime Clock</Description><StartTime><Timestamp dt:dt="int">0</Timestamp><DateUtc dt:dt="string">2017-05-20T05:19:03Z</DateUtc></StartTime><FrequencyChanges><FrequencyChange><Frequency dt:dt="r8">3312675</Frequency><Timestamp dt:dt="r8">54156963611</Timestamp><Current dt:dt="r8">0</Current><DateUtc dt:dt="string">2017-05-20T05:19:03Z</DateUtc></FrequencyChange></FrequencyChanges></Clock>\n	ANT_fMRI_Run1-1-1	60.003	1.0.0.84	0		-999999	6	366317	0	{ENTER}	6118	372435	1	0		-999999	87	3583	0	1	1435	-1676938189	Professional	2.0.10.356	2.0.10.356	05-20-2017	2017/5/20 5:19:04	13:19:04	2.0.10.252	-999999	12082	49	5067	0	2	2	1	2	?	BlockProc	BlockList	12	10	1	540	-140	676	1000	congruent	450	-42	42	235857	0	-6	6	232890	0	1	1	-999999	8	234373	0	1	443	234816		PracTrialProc	TrialList	?	left	stimuli\	lllll	600	down	19	2	60	19	center
ANT_fMRI_Run1	1	1	<?xml version="1.0"?>\n<Clock xmlns:dt="urn:schemas-microsoft-com:datatypes"><Description dt:dt="string">E-Prime Primary Realtime Clock</Description><StartTime><Timestamp dt:dt="int">0</Timestamp><DateUtc dt:dt="string">2017-05-20T05:19:03Z</DateUtc></StartTime><FrequencyChanges><FrequencyChange><Frequency dt:dt="r8">3312675</Frequency><Timestamp dt:dt="r8">54156963611</Timestamp><Current dt:dt="r8">0</Current><DateUtc dt:dt="string">2017-05-20T05:19:03Z</DateUtc></FrequencyChange></FrequencyChanges></Clock>\n	ANT_fMRI_Run1-1-1	60.003	1.0.0.84	0		-999999	6	366317	0	{ENTER}	6118	372435	1	0		-999999	87	3583	0	1	1435	-1676938189	Professional	2.0.10.356	2.0.10.356	05-20-2017	2017/5/20 5:19:04	13:19:04	2.0.10.252	-999999	12082	49	5067	0	2	2	1	2	?	BlockProc	BlockList	13	19	1	480	-140	314	1000	congruent	450	-32	32	239823	0	-16	16	236507	0	1	1	-999999	15	238407	0	1	385	238792		PracTrialProc	TrialList	?	left	stimuli\	lllll	480	up	37	2	61	37	up
ANT_fMRI_Run1	1	1	<?xml version="1.0"?>\n<Clock xmlns:dt="urn:schemas-microsoft-com:datatypes"><Description dt:dt="string">E-Prime Primary Realtime Clock</Description><StartTime><Timestamp dt:dt="int">0</Timestamp><DateUtc dt:dt="string">2017-05-20T05:19:03Z</DateUtc></StartTime><FrequencyChanges><FrequencyChange><Frequency dt:dt="r8">3312675</Frequency><Timestamp dt:dt="r8">54156963611</Timestamp><Current dt:dt="r8">0</Current><DateUtc dt:dt="string">2017-05-20T05:19:03Z</DateUtc></FrequencyChange></FrequencyChanges></Clock>\n	ANT_fMRI_Run1-1-1	60.003	1.0.0.84	0		-999999	6	366317	0	{ENTER}	6118	372435	1	0		-999999	87	3583	0	1	1435	-1676938189	Professional	2.0.10.356	2.0.10.356	05-20-2017	2017/5/20 5:19:04	13:19:04	2.0.10.252	-999999	12082	49	5067	0	2	2	1	2	?	BlockProc	BlockList	14	2	2	-140	-140	628	1000	incongruent	450	-36	36	243123	0	-1	1	240106	0	1	2	-999999	11	241606	0	2	482	242088		PracTrialProc	TrialList	?	right	stimuli\	llrll	480	up	4	2	62	4	no
ANT_fMRI_Run1	1	1	<?xml version="1.0"?>\n<Clock xmlns:dt="urn:schemas-microsoft-com:datatypes"><Description dt:dt="string">E-Prime Primary Realtime Clock</Description><StartTime><Timestamp dt:dt="int">0</Timestamp><DateUtc dt:dt="string">2017-05-20T05:19:03Z</DateUtc></StartTime><FrequencyChanges><FrequencyChange><Frequency dt:dt="r8">3312675</Frequency><Timestamp dt:dt="r8">54156963611</Timestamp><Current dt:dt="r8">0</Current><DateUtc dt:dt="string">2017-05-20T05:19:03Z</DateUtc></FrequencyChange></FrequencyChanges></Clock>\n	ANT_fMRI_Run1-1-1	60.003	1.0.0.84	0		-999999	6	366317	0	{ENTER}	6118	372435	1	0		-999999	87	3583	0	1	1435	-1676938189	Professional	2.0.10.356	2.0.10.356	05-20-2017	2017/5/20 5:19:04	13:19:04	2.0.10.252	-999999	12082	49	5067	0	2	2	1	2	?	BlockProc	BlockList	15	8	1	540	-140	325	1000	incongruent	450	-40	40	247039	0	-8	8	243723	0	1	1	-999999	10	245573	0	1	427	246000		PracTrialProc	TrialList	?	left	stimuli\	rrlrr	480	up	15	2	63	15	center
ANT_fMRI_Run1	1	1	<?xml version="1.0"?>\n<Clock xmlns:dt="urn:schemas-microsoft-com:datatypes"><Description dt:dt="string">E-Prime Primary Realtime Clock</Description><StartTime><Timestamp dt:dt="int">0</Timestamp><DateUtc dt:dt="string">2017-05-20T05:19:03Z</DateUtc></StartTime><FrequencyChanges><FrequencyChange><Frequency dt:dt="r8">3312675</Frequency><Timestamp dt:dt="r8">54156963611</Timestamp><Current dt:dt="r8">0</Current><DateUtc dt:dt="string">2017-05-20T05:19:03Z</DateUtc></FrequencyChange></FrequencyChanges></Clock>\n	ANT_fMRI_Run1-1-1	60.003	1.0.0.84	0		-999999	6	366317	0	{ENTER}	6118	372435	1	0		-999999	87	3583	0	1	1435	-1676938189	Professional	2.0.10.356	2.0.10.356	05-20-2017	2017/5/20 5:19:04	13:19:04	2.0.10.252	-999999	12082	49	5067	0	2	2	1	2	?	BlockProc	BlockList	16	9	2	540	-140	669	1000	neutral	450	-34	34	250289	0	-15	15	247339	0	1	2	-999999	1	248806	0	2	450	249256		PracTrialProc	TrialList	?	right	stimuli\	ooroo	480	up	18	2	64	18	center
ANT_fMRI_Run1	1	1	<?xml version="1.0"?>\n<Clock xmlns:dt="urn:schemas-microsoft-com:datatypes"><Description dt:dt="string">E-Prime Primary Realtime Clock</Description><StartTime><Timestamp dt:dt="int">0</Timestamp><DateUtc dt:dt="string">2017-05-20T05:19:03Z</DateUtc></StartTime><FrequencyChanges><FrequencyChange><Frequency dt:dt="r8">3312675</Frequency><Timestamp dt:dt="r8">54156963611</Timestamp><Current dt:dt="r8">0</Current><DateUtc dt:dt="string">2017-05-20T05:19:03Z</DateUtc></FrequencyChange></FrequencyChanges></Clock>\n	ANT_fMRI_Run1-1-1	60.003	1.0.0.84	0		-999999	6	366317	0	{ENTER}	6118	372435	1	0		-999999	87	3583	0	1	1435	-1676938189	Professional	2.0.10.356	2.0.10.356	05-20-2017	2017/5/20 5:19:04	13:19:04	2.0.10.252	-999999	12082	49	5067	0	2	2	1	2	?	BlockProc	BlockList	17	22	2	600	-140	83	1000	congruent	450	0	42	254489	0	-15	15	250939	0	1	2	-999999	7	253039	0	2	409	253448		PracTrialProc	TrialList	?	right	stimuli\	rrrrr	600	down	44	2	65	44	down
ANT_fMRI_Run1	1	1	<?xml version="1.0"?>\n<Clock xmlns:dt="urn:schemas-microsoft-com:datatypes"><Description dt:dt="string">E-Prime Primary Realtime Clock</Description><StartTime><Timestamp dt:dt="int">0</Timestamp><DateUtc dt:dt="string">2017-05-20T05:19:03Z</DateUtc></StartTime><FrequencyChanges><FrequencyChange><Frequency dt:dt="r8">3312675</Frequency><Timestamp dt:dt="r8">54156963611</Timestamp><Current dt:dt="r8">0</Current><DateUtc dt:dt="string">2017-05-20T05:19:03Z</DateUtc></FrequencyChange></FrequencyChanges></Clock>\n	ANT_fMRI_Run1-1-1	60.003	1.0.0.84	0		-999999	6	366317	0	{ENTER}	6118	372435	1	0		-999999	87	3583	0	1	1435	-1676938189	Professional	2.0.10.356	2.0.10.356	05-20-2017	2017/5/20 5:19:04	13:19:04	2.0.10.252	-999999	12082	49	5067	0	2	2	1	2	?	BlockProc	BlockList	18	7	1	540	-140	542	1000	congruent	450	-31	31	257622	0	-9	9	254539	0	1	1	-999999	4	256072	0	1	520	256592		PracTrialProc	TrialList	?	left	stimuli\	lllll	480	up	13	2	66	13	center
ANT_fMRI_Run1	1	1	<?xml version="1.0"?>\n<Clock xmlns:dt="urn:schemas-microsoft-com:datatypes"><Description dt:dt="string">E-Prime Primary Realtime Clock</Description><StartTime><Timestamp dt:dt="int">0</Timestamp><DateUtc dt:dt="string">2017-05-20T05:19:03Z</DateUtc></StartTime><FrequencyChanges><FrequencyChange><Frequency dt:dt="r8">3312675</Frequency><Timestamp dt:dt="r8">54156963611</Timestamp><Current dt:dt="r8">0</Current><DateUtc dt:dt="string">2017-05-20T05:19:03Z</DateUtc></FrequencyChange></FrequencyChanges></Clock>\n	ANT_fMRI_Run1-1-1	60.003	1.0.0.84	0		-999999	6	366317	0	{ENTER}	6118	372435	1	0		-999999	87	3583	0	1	1435	-1676938189	Professional	2.0.10.356	2.0.10.356	05-20-2017	2017/5/20 5:19:04	13:19:04	2.0.10.252	-999999	12082	49	5067	0	2	2	1	2	?	BlockProc	BlockList	19	12	1	540	-140	362	1000	neutral	450	-39	39	261422	0	-6	6	258139	0	1	1	-999999	13	260005	0	1	379	260384		PracTrialProc	TrialList	?	left	stimuli\	ooloo	600	down	23	2	67	23	center
ANT_fMRI_Run1	1	1	<?xml version="1.0"?>\n<Clock xmlns:dt="urn:schemas-microsoft-com:datatypes"><Description dt:dt="string">E-Prime Primary Realtime Clock</Description><StartTime><Timestamp dt:dt="int">0</Timestamp><DateUtc dt:dt="string">2017-05-20T05:19:03Z</DateUtc></StartTime><FrequencyChanges><FrequencyChange><Frequency dt:dt="r8">3312675</Frequency><Timestamp dt:dt="r8">54156963611</Timestamp><Current dt:dt="r8">0</Current><DateUtc dt:dt="string">2017-05-20T05:19:03Z</DateUtc></FrequencyChange></FrequencyChanges></Clock>\n	ANT_fMRI_Run1-1-1	60.003	1.0.0.84	0		-999999	6	366317	0	{ENTER}	6118	372435	1	0		-999999	87	3583	0	1	1435	-1676938189	Professional	2.0.10.356	2.0.10.356	05-20-2017	2017/5/20 5:19:04	13:19:04	2.0.10.252	-999999	12082	49	5067	0	2	2	1	2	?	BlockProc	BlockList	20	1	2	-140	-140	851	1000	congruent	450	-36	36	264539	0	-10	10	261755	0	1	2	-999999	10	262989	0	2	515	263504		PracTrialProc	TrialList	?	right	stimuli\	rrrrr	480	up	2	2	68	2	no
ANT_fMRI_Run1	1	1	<?xml version="1.0"?>\n<Clock xmlns:dt="urn:schemas-microsoft-com:datatypes"><Description dt:dt="string">E-Prime Primary Realtime Clock</Description><StartTime><Timestamp dt:dt="int">0</Timestamp><DateUtc dt:dt="string">2017-05-20T05:19:03Z</DateUtc></StartTime><FrequencyChanges><FrequencyChange><Frequency dt:dt="r8">3312675</Frequency><Timestamp dt:dt="r8">54156963611</Timestamp><Current dt:dt="r8">0</Current><DateUtc dt:dt="string">2017-05-20T05:19:03Z</DateUtc></FrequencyChange></FrequencyChanges></Clock>\n	ANT_fMRI_Run1-1-1	60.003	1.0.0.84	0		-999999	6	366317	0	{ENTER}	6118	372435	1	0		-999999	87	3583	0	1	1435	-1676938189	Professional	2.0.10.356	2.0.10.356	05-20-2017	2017/5/20 5:19:04	13:19:04	2.0.10.252	-999999	12082	49	5067	0	2	2	1	2	?	BlockProc	BlockList	21	6	2	-140	-140	903	1000	neutral	450	-42	42	268105	0	-1	1	265355	650	1	2	-999999	13	266605	0	2	459	267064		PracTrialProc	TrialList	?	right	stimuli\	ooroo	600	down	12	2	69	12	no
ANT_fMRI_Run1	1	1	<?xml version="1.0"?>\n<Clock xmlns:dt="urn:schemas-microsoft-com:datatypes"><Description dt:dt="string">E-Prime Primary Realtime Clock</Description><StartTime><Timestamp dt:dt="int">0</Timestamp><DateUtc dt:dt="string">2017-05-20T05:19:03Z</DateUtc></StartTime><FrequencyChanges><FrequencyChange><Frequency dt:dt="r8">3312675</Frequency><Timestamp dt:dt="r8">54156963611</Timestamp><Current dt:dt="r8">0</Current><DateUtc dt:dt="string">2017-05-20T05:19:03Z</DateUtc></FrequencyChange></FrequencyChanges></Clock>\n	ANT_fMRI_Run1-1-1	60.003	1.0.0.84	0		-999999	6	366317	0	{ENTER}	6118	372435	1	0		-999999	87	3583	0	1	1435	-1676938189	Professional	2.0.10.356	2.0.10.356	05-20-2017	2017/5/20 5:19:04	13:19:04	2.0.10.252	-999999	12082	49	5067	0	2	2	1	2	?	BlockProc	BlockList	22	1	1	-140	-140	712	1000	congruent	450	-33	33	271888	0	-6	6	268972	0	1	1	-999999	2	270388	0	1	468	270856		PracTrialProc	TrialList	?	left	stimuli\	lllll	480	up	1	2	70	1	no
ANT_fMRI_Run1	1	1	<?xml version="1.0"?>\n<Clock xmlns:dt="urn:schemas-microsoft-com:datatypes"><Description dt:dt="string">E-Prime Primary Realtime Clock</Description><StartTime><Timestamp dt:dt="int">0</Timestamp><DateUtc dt:dt="string">2017-05-20T05:19:03Z</DateUtc></StartTime><FrequencyChanges><FrequencyChange><Frequency dt:dt="r8">3312675</Frequency><Timestamp dt:dt="r8">54156963611</Timestamp><Current dt:dt="r8">0</Current><DateUtc dt:dt="string">2017-05-20T05:19:03Z</DateUtc></FrequencyChange></FrequencyChanges></Clock>\n	ANT_fMRI_Run1-1-1	60.003	1.0.0.84	0		-999999	6	366317	0	{ENTER}	6118	372435	1	0		-999999	87	3583	0	1	1435	-1676938189	Professional	2.0.10.356	2.0.10.356	05-20-2017	2017/5/20 5:19:04	13:19:04	2.0.10.252	-999999	12082	49	5067	0	2	2	1	2	?	BlockProc	BlockList	23	19	2	480	-140	1193	1000	congruent	450	-38	38	275021	0	-5	5	272572	0	1	2	-999999	9	273588	0	2	395	273983		PracTrialProc	TrialList	?	right	stimuli\	rrrrr	480	up	38	2	71	38	up
ANT_fMRI_Run1	1	1	<?xml version="1.0"?>\n<Clock xmlns:dt="urn:schemas-microsoft-com:datatypes"><Description dt:dt="string">E-Prime Primary Realtime Clock</Description><StartTime><Timestamp dt:dt="int">0</Timestamp><DateUtc dt:dt="string">2017-05-20T05:19:03Z</DateUtc></StartTime><FrequencyChanges><FrequencyChange><Frequency dt:dt="r8">3312675</Frequency><Timestamp dt:dt="r8">54156963611</Timestamp><Current dt:dt="r8">0</Current><DateUtc dt:dt="string">2017-05-20T05:19:03Z</DateUtc></FrequencyChange></FrequencyChanges></Clock>\n	ANT_fMRI_Run1-1-1	60.003	1.0.0.84	0		-999999	6	366317	0	{ENTER}	6118	372435	1	0		-999999	87	3583	0	1	1435	-1676938189	Professional	2.0.10.356	2.0.10.356	05-20-2017	2017/5/20 5:19:04	13:19:04	2.0.10.252	-999999	12082	49	5067	0	2	2	1	2	?	BlockProc	BlockList	24	7	2	540	-140	984	1000	congruent	450	-39	39	278838	0	-12	12	276188	633	1	2	-999999	7	277421	0	2	378	277799		PracTrialProc	TrialList	?	right	stimuli\	rrrrr	480	up	14	2	72	14	center
ANT_fMRI_Run1	1	1	<?xml version="1.0"?>\n<Clock xmlns:dt="urn:schemas-microsoft-com:datatypes"><Description dt:dt="string">E-Prime Primary Realtime Clock</Description><StartTime><Timestamp dt:dt="int">0</Timestamp><DateUtc dt:dt="string">2017-05-20T05:19:03Z</DateUtc></StartTime><FrequencyChanges><FrequencyChange><Frequency dt:dt="r8">3312675</Frequency><Timestamp dt:dt="r8">54156963611</Timestamp><Current dt:dt="r8">0</Current><DateUtc dt:dt="string">2017-05-20T05:19:03Z</DateUtc></FrequencyChange></FrequencyChanges></Clock>\n	ANT_fMRI_Run1-1-1	60.003	1.0.0.84	0		-999999	6	366317	0	{ENTER}	6118	372435	1	0		-999999	87	3583	0	1	1435	-1676938189	Professional	2.0.10.356	2.0.10.356	05-20-2017	2017/5/20 5:19:04	13:19:04	2.0.10.252	-999999	12082	49	5067	0	2	2	1	2	?	BlockProc	BlockList	25	15	1	480	600	651	1000	neutral	450	-37	37	282771	0	-5	5	279788	0	1	1	-999999	3	281338	0	1	397	281735		PracTrialProc	TrialList	?	left	stimuli\	ooloo	480	up	29	2	73	29	double
ANT_fMRI_Run1	1	1	<?xml version="1.0"?>\n<Clock xmlns:dt="urn:schemas-microsoft-com:datatypes"><Description dt:dt="string">E-Prime Primary Realtime Clock</Description><StartTime><Timestamp dt:dt="int">0</Timestamp><DateUtc dt:dt="string">2017-05-20T05:19:03Z</DateUtc></StartTime><FrequencyChanges><FrequencyChange><Frequency dt:dt="r8">3312675</Frequency><Timestamp dt:dt="r8">54156963611</Timestamp><Current dt:dt="r8">0</Current><DateUtc dt:dt="string">2017-05-20T05:19:03Z</DateUtc></FrequencyChange></FrequencyChanges></Clock>\n	ANT_fMRI_Run1-1-1	60.003	1.0.0.84	0		-999999	6	366317	0	{ENTER}	6118	372435	1	0		-999999	87	3583	0	1	1435	-1676938189	Professional	2.0.10.356	2.0.10.356	05-20-2017	2017/5/20 5:19:04	13:19:04	2.0.10.252	-999999	12082	49	5067	0	2	2	1	2	?	BlockProc	BlockList	26	18	1	600	480	-234	1000	neutral	450	334	36	287254	0	-3	3	283388	0	0	1	-2	2	285221	1000		0	0		PracTrialProc	TrialList	?	left	stimuli\	ooloo	600	down	35	2	74	35	double
ANT_fMRI_Run1	1	1	<?xml version="1.0"?>\n<Clock xmlns:dt="urn:schemas-microsoft-com:datatypes"><Description dt:dt="string">E-Prime Primary Realtime Clock</Description><StartTime><Timestamp dt:dt="int">0</Timestamp><DateUtc dt:dt="string">2017-05-20T05:19:03Z</DateUtc></StartTime><FrequencyChanges><FrequencyChange><Frequency dt:dt="r8">3312675</Frequency><Timestamp dt:dt="r8">54156963611</Timestamp><Current dt:dt="r8">0</Current><DateUtc dt:dt="string">2017-05-20T05:19:03Z</DateUtc></FrequencyChange></FrequencyChanges></Clock>\n	ANT_fMRI_Run1-1-1	60.003	1.0.0.84	0		-999999	6	366317	0	{ENTER}	6118	372435	1	0		-999999	87	3583	0	1	1435	-1676938189	Professional	2.0.10.356	2.0.10.356	05-20-2017	2017/5/20 5:19:04	13:19:04	2.0.10.252	-999999	12082	49	5067	0	2	2	1	2	?	BlockProc	BlockList	27	12	2	540	-140	1051	1000	neutral	450	-37	37	289571	0	-304	304	287288	0	1	2	-999999	2	288088	0	2	447	288535		PracTrialProc	TrialList	?	right	stimuli\	ooroo	600	down	24	2	75	24	center
ANT_fMRI_Run1	1	1	<?xml version="1.0"?>\n<Clock xmlns:dt="urn:schemas-microsoft-com:datatypes"><Description dt:dt="string">E-Prime Primary Realtime Clock</Description><StartTime><Timestamp dt:dt="int">0</Timestamp><DateUtc dt:dt="string">2017-05-20T05:19:03Z</DateUtc></StartTime><FrequencyChanges><FrequencyChange><Frequency dt:dt="r8">3312675</Frequency><Timestamp dt:dt="r8">54156963611</Timestamp><Current dt:dt="r8">0</Current><DateUtc dt:dt="string">2017-05-20T05:19:03Z</DateUtc></FrequencyChange></FrequencyChanges></Clock>\n	ANT_fMRI_Run1-1-1	60.003	1.0.0.84	0		-999999	6	366317	0	{ENTER}	6118	372435	1	0		-999999	87	3583	0	1	1435	-1676938189	Professional	2.0.10.356	2.0.10.356	05-20-2017	2017/5/20 5:19:04	13:19:04	2.0.10.252	-999999	12082	49	5067	0	2	2	1	2	?	BlockProc	BlockList	28	24	1	600	-140	1048	1000	neutral	450	-38	38	293188	0	-2	2	290587	0	1	1	-999999	14	291671	0	1	480	292151		PracTrialProc	TrialList	?	left	stimuli\	ooloo	600	down	47	2	76	47	down
ANT_fMRI_Run1	1	1	<?xml version="1.0"?>\n<Clock xmlns:dt="urn:schemas-microsoft-com:datatypes"><Description dt:dt="string">E-Prime Primary Realtime Clock</Description><StartTime><Timestamp dt:dt="int">0</Timestamp><DateUtc dt:dt="string">2017-05-20T05:19:03Z</DateUtc></StartTime><FrequencyChanges><FrequencyChange><Frequency dt:dt="r8">3312675</Frequency><Timestamp dt:dt="r8">54156963611</Timestamp><Current dt:dt="r8">0</Current><DateUtc dt:dt="string">2017-05-20T05:19:03Z</DateUtc></FrequencyChange></FrequencyChanges></Clock>\n	ANT_fMRI_Run1-1-1	60.003	1.0.0.84	0		-999999	6	366317	0	{ENTER}	6118	372435	1	0		-999999	87	3583	0	1	1435	-1676938189	Professional	2.0.10.356	2.0.10.356	05-20-2017	2017/5/20 5:19:04	13:19:04	2.0.10.252	-999999	12082	49	5067	0	2	2	1	2	?	BlockProc	BlockList	29	8	2	540	-140	693	1000	incongruent	450	-27	27	297137	0	-6	6	294204	0	1	2	-999999	6	295671	0	2	440	296111		PracTrialProc	TrialList	?	right	stimuli\	llrll	480	up	16	2	77	16	center
ANT_fMRI_Run1	1	1	<?xml version="1.0"?>\n<Clock xmlns:dt="urn:schemas-microsoft-com:datatypes"><Description dt:dt="string">E-Prime Primary Realtime Clock</Description><StartTime><Timestamp dt:dt="int">0</Timestamp><DateUtc dt:dt="string">2017-05-20T05:19:03Z</DateUtc></StartTime><FrequencyChanges><FrequencyChange><Frequency dt:dt="r8">3312675</Frequency><Timestamp dt:dt="r8">54156963611</Timestamp><Current dt:dt="r8">0</Current><DateUtc dt:dt="string">2017-05-20T05:19:03Z</DateUtc></FrequencyChange></FrequencyChanges></Clock>\n	ANT_fMRI_Run1-1-1	60.003	1.0.0.84	0		-999999	6	366317	0	{ENTER}	6118	372435	1	0		-999999	87	3583	0	1	1435	-1676938189	Professional	2.0.10.356	2.0.10.356	05-20-2017	2017/5/20 5:19:04	13:19:04	2.0.10.252	-999999	12082	49	5067	0	2	2	1	2	?	BlockProc	BlockList	30	17	2	600	480	107	1000	incongruent	450	-7	35	301337	0	-1	1	297804	0	1	2	-999999	7	299720	0	2	583	300303		PracTrialProc	TrialList	?	right	stimuli\	llrll	600	down	34	2	78	34	double
ANT_fMRI_Run1	1	1	<?xml version="1.0"?>\n<Clock xmlns:dt="urn:schemas-microsoft-com:datatypes"><Description dt:dt="string">E-Prime Primary Realtime Clock</Description><StartTime><Timestamp dt:dt="int">0</Timestamp><DateUtc dt:dt="string">2017-05-20T05:19:03Z</DateUtc></StartTime><FrequencyChanges><FrequencyChange><Frequency dt:dt="r8">3312675</Frequency><Timestamp dt:dt="r8">54156963611</Timestamp><Current dt:dt="r8">0</Current><DateUtc dt:dt="string">2017-05-20T05:19:03Z</DateUtc></FrequencyChange></FrequencyChanges></Clock>\n	ANT_fMRI_Run1-1-1	60.003	1.0.0.84	0		-999999	6	366317	0	{ENTER}	6118	372435	1	0		-999999	87	3583	0	1	1435	-1676938189	Professional	2.0.10.356	2.0.10.356	05-20-2017	2017/5/20 5:19:04	13:19:04	2.0.10.252	-999999	12082	49	5067	0	2	2	1	2	?	BlockProc	BlockList	31	3	2	-140	-140	108	1000	neutral	450	-8	35	304937	0	-11	11	301420	0	1	2	-999999	2	303454	0	2	449	303903		PracTrialProc	TrialList	?	right	stimuli\	ooroo	480	up	6	2	79	6	no
ANT_fMRI_Run1	1	1	<?xml version="1.0"?>\n<Clock xmlns:dt="urn:schemas-microsoft-com:datatypes"><Description dt:dt="string">E-Prime Primary Realtime Clock</Description><StartTime><Timestamp dt:dt="int">0</Timestamp><DateUtc dt:dt="string">2017-05-20T05:19:03Z</DateUtc></StartTime><FrequencyChanges><FrequencyChange><Frequency dt:dt="r8">3312675</Frequency><Timestamp dt:dt="r8">54156963611</Timestamp><Current dt:dt="r8">0</Current><DateUtc dt:dt="string">2017-05-20T05:19:03Z</DateUtc></FrequencyChange></FrequencyChanges></Clock>\n	ANT_fMRI_Run1-1-1	60.003	1.0.0.84	0		-999999	6	366317	0	{ENTER}	6118	372435	1	0		-999999	87	3583	0	1	1435	-1676938189	Professional	2.0.10.356	2.0.10.356	05-20-2017	2017/5/20 5:19:04	13:19:04	2.0.10.252	-999999	12082	49	5067	0	2	2	1	2	?	BlockProc	BlockList	32	23	1	600	-140	291	1000	incongruent	450	-36	36	308370	0	-10	10	305020	0	1	1	-999999	16	306987	0	1	348	307335		PracTrialProc	TrialList	?	left	stimuli\	rrlrr	600	down	45	2	80	45	down
ANT_fMRI_Run1	1	1	<?xml version="1.0"?>\n<Clock xmlns:dt="urn:schemas-microsoft-com:datatypes"><Description dt:dt="string">E-Prime Primary Realtime Clock</Description><StartTime><Timestamp dt:dt="int">0</Timestamp><DateUtc dt:dt="string">2017-05-20T05:19:03Z</DateUtc></StartTime><FrequencyChanges><FrequencyChange><Frequency dt:dt="r8">3312675</Frequency><Timestamp dt:dt="r8">54156963611</Timestamp><Current dt:dt="r8">0</Current><DateUtc dt:dt="string">2017-05-20T05:19:03Z</DateUtc></FrequencyChange></FrequencyChanges></Clock>\n	ANT_fMRI_Run1-1-1	60.003	1.0.0.84	0		-999999	6	366317	0	{ENTER}	6118	372435	1	0		-999999	87	3583	0	1	1435	-1676938189	Professional	2.0.10.356	2.0.10.356	05-20-2017	2017/5/20 5:19:04	13:19:04	2.0.10.252	-999999	12082	49	5067	0	2	2	1	2	?	BlockProc	BlockList	33	4	1	-140	-140	648	1000	congruent	450	-30	30	311620	0	-12	12	308637	0	1	1	-999999	14	310187	0	1	404	310591		PracTrialProc	TrialList	?	left	stimuli\	lllll	600	down	7	2	81	7	no
ANT_fMRI_Run1	1	1	<?xml version="1.0"?>\n<Clock xmlns:dt="urn:schemas-microsoft-com:datatypes"><Description dt:dt="string">E-Prime Primary Realtime Clock</Description><StartTime><Timestamp dt:dt="int">0</Timestamp><DateUtc dt:dt="string">2017-05-20T05:19:03Z</DateUtc></StartTime><FrequencyChanges><FrequencyChange><Frequency dt:dt="r8">3312675</Frequency><Timestamp dt:dt="r8">54156963611</Timestamp><Current dt:dt="r8">0</Current><DateUtc dt:dt="string">2017-05-20T05:19:03Z</DateUtc></FrequencyChange></FrequencyChanges></Clock>\n	ANT_fMRI_Run1-1-1	60.003	1.0.0.84	0		-999999	6	366317	0	{ENTER}	6118	372435	1	0		-999999	87	3583	0	1	1435	-1676938189	Professional	2.0.10.356	2.0.10.356	05-20-2017	2017/5/20 5:19:04	13:19:04	2.0.10.252	-999999	12082	49	5067	0	2	2	1	2	?	BlockProc	BlockList	34	17	1	600	480	703	1000	incongruent	450	-36	36	315170	0	-15	15	312253	0	1	1	-999999	0	313653	0	1	482	314135		PracTrialProc	TrialList	?	left	stimuli\	rrlrr	600	down	33	2	82	33	double
ANT_fMRI_Run1	1	1	<?xml version="1.0"?>\n<Clock xmlns:dt="urn:schemas-microsoft-com:datatypes"><Description dt:dt="string">E-Prime Primary Realtime Clock</Description><StartTime><Timestamp dt:dt="int">0</Timestamp><DateUtc dt:dt="string">2017-05-20T05:19:03Z</DateUtc></StartTime><FrequencyChanges><FrequencyChange><Frequency dt:dt="r8">3312675</Frequency><Timestamp dt:dt="r8">54156963611</Timestamp><Current dt:dt="r8">0</Current><DateUtc dt:dt="string">2017-05-20T05:19:03Z</DateUtc></FrequencyChange></FrequencyChanges></Clock>\n	ANT_fMRI_Run1-1-1	60.003	1.0.0.84	0		-999999	6	366317	0	{ENTER}	6118	372435	1	0		-999999	87	3583	0	1	1435	-1676938189	Professional	2.0.10.356	2.0.10.356	05-20-2017	2017/5/20 5:19:04	13:19:04	2.0.10.252	-999999	12082	49	5067	0	2	2	1	2	?	BlockProc	BlockList	35	22	1	600	-140	1188	1000	congruent	450	-32	32	318286	0	-16	16	315853	0	1	1	-999999	6	316920	0	1	335	317255		PracTrialProc	TrialList	?	left	stimuli\	lllll	600	down	43	2	83	43	down
ANT_fMRI_Run1	1	1	<?xml version="1.0"?>\n<Clock xmlns:dt="urn:schemas-microsoft-com:datatypes"><Description dt:dt="string">E-Prime Primary Realtime Clock</Description><StartTime><Timestamp dt:dt="int">0</Timestamp><DateUtc dt:dt="string">2017-05-20T05:19:03Z</DateUtc></StartTime><FrequencyChanges><FrequencyChange><Frequency dt:dt="r8">3312675</Frequency><Timestamp dt:dt="r8">54156963611</Timestamp><Current dt:dt="r8">0</Current><DateUtc dt:dt="string">2017-05-20T05:19:03Z</DateUtc></FrequencyChange></FrequencyChanges></Clock>\n	ANT_fMRI_Run1-1-1	60.003	1.0.0.84	0		-999999	6	366317	0	{ENTER}	6118	372435	1	0		-999999	87	3583	0	1	1435	-1676938189	Professional	2.0.10.356	2.0.10.356	05-20-2017	2017/5/20 5:19:04	13:19:04	2.0.10.252	-999999	12082	49	5067	0	2	2	1	2	?	BlockProc	BlockList	36	11	1	540	-140	659	1000	incongruent	450	-29	29	322419	0	-11	11	319453	0	1	1	-999999	8	321003	0	1	388	321391		PracTrialProc	TrialList	?	left	stimuli\	rrlrr	600	down	21	2	84	21	center
ANT_fMRI_Run1	1	1	<?xml version="1.0"?>\n<Clock xmlns:dt="urn:schemas-microsoft-com:datatypes"><Description dt:dt="string">E-Prime Primary Realtime Clock</Description><StartTime><Timestamp dt:dt="int">0</Timestamp><DateUtc dt:dt="string">2017-05-20T05:19:03Z</DateUtc></StartTime><FrequencyChanges><FrequencyChange><Frequency dt:dt="r8">3312675</Frequency><Timestamp dt:dt="r8">54156963611</Timestamp><Current dt:dt="r8">0</Current><DateUtc dt:dt="string">2017-05-20T05:19:03Z</DateUtc></FrequencyChange></FrequencyChanges></Clock>\n	ANT_fMRI_Run1-1-1	60.003	1.0.0.84	0		-999999	6	366317	0	{ENTER}	6118	372435	1	0		-999999	87	3583	0	1	1435	-1676938189	Professional	2.0.10.356	2.0.10.356	05-20-2017	2017/5/20 5:19:04	13:19:04	2.0.10.252	-999999	12082	49	5067	0	2	2	1	2	?	BlockProc	BlockList	37	9	1	540	-140	1027	1000	neutral	450	-39	39	325669	0	-4	4	323053	0	0	1	-999999	9	324119	0	2	512	324631		PracTrialProc	TrialList	?	left	stimuli\	ooloo	480	up	17	2	85	17	center
ANT_fMRI_Run1	1	1	<?xml version="1.0"?>\n<Clock xmlns:dt="urn:schemas-microsoft-com:datatypes"><Description dt:dt="string">E-Prime Primary Realtime Clock</Description><StartTime><Timestamp dt:dt="int">0</Timestamp><DateUtc dt:dt="string">2017-05-20T05:19:03Z</DateUtc></StartTime><FrequencyChanges><FrequencyChange><Frequency dt:dt="r8">3312675</Frequency><Timestamp dt:dt="r8">54156963611</Timestamp><Current dt:dt="r8">0</Current><DateUtc dt:dt="string">2017-05-20T05:19:03Z</DateUtc></FrequencyChange></FrequencyChanges></Clock>\n	ANT_fMRI_Run1-1-1	60.003	1.0.0.84	0		-999999	6	366317	0	{ENTER}	6118	372435	1	0		-999999	87	3583	0	1	1435	-1676938189	Professional	2.0.10.356	2.0.10.356	05-20-2017	2017/5/20 5:19:04	13:19:04	2.0.10.252	-999999	12082	49	5067	0	2	2	1	2	?	BlockProc	BlockList	38	4	2	-140	-140	1079	1000	congruent	450	-29	29	329219	0	-12	12	326669	0	1	2	-999999	13	327769	0	2	422	328191		PracTrialProc	TrialList	?	right	stimuli\	rrrrr	600	down	8	2	86	8	no
ANT_fMRI_Run1	1	1	<?xml version="1.0"?>\n<Clock xmlns:dt="urn:schemas-microsoft-com:datatypes"><Description dt:dt="string">E-Prime Primary Realtime Clock</Description><StartTime><Timestamp dt:dt="int">0</Timestamp><DateUtc dt:dt="string">2017-05-20T05:19:03Z</DateUtc></StartTime><FrequencyChanges><FrequencyChange><Frequency dt:dt="r8">3312675</Frequency><Timestamp dt:dt="r8">54156963611</Timestamp><Current dt:dt="r8">0</Current><DateUtc dt:dt="string">2017-05-20T05:19:03Z</DateUtc></FrequencyChange></FrequencyChanges></Clock>\n	ANT_fMRI_Run1-1-1	60.003	1.0.0.84	0		-999999	6	366317	0	{ENTER}	6118	372435	1	0		-999999	87	3583	0	1	1435	-1676938189	Professional	2.0.10.356	2.0.10.356	05-20-2017	2017/5/20 5:19:04	13:19:04	2.0.10.252	-999999	12082	49	5067	0	2	2	1	2	?	BlockProc	BlockList	39	6	1	-140	-140	750	1000	neutral	450	-34	34	333152	0	0	0	330269	0	1	1	-999999	0	331502	0	1	617	332119		PracTrialProc	TrialList	?	left	stimuli\	ooloo	600	down	11	2	87	11	no
ANT_fMRI_Run1	1	1	<?xml version="1.0"?>\n<Clock xmlns:dt="urn:schemas-microsoft-com:datatypes"><Description dt:dt="string">E-Prime Primary Realtime Clock</Description><StartTime><Timestamp dt:dt="int">0</Timestamp><DateUtc dt:dt="string">2017-05-20T05:19:03Z</DateUtc></StartTime><FrequencyChanges><FrequencyChange><Frequency dt:dt="r8">3312675</Frequency><Timestamp dt:dt="r8">54156963611</Timestamp><Current dt:dt="r8">0</Current><DateUtc dt:dt="string">2017-05-20T05:19:03Z</DateUtc></FrequencyChange></FrequencyChanges></Clock>\n	ANT_fMRI_Run1-1-1	60.003	1.0.0.84	0		-999999	6	366317	0	{ENTER}	6118	372435	1	0		-999999	87	3583	0	1	1435	-1676938189	Professional	2.0.10.356	2.0.10.356	05-20-2017	2017/5/20 5:19:04	13:19:04	2.0.10.252	-999999	12082	49	5067	0	2	2	1	2	?	BlockProc	BlockList	40	13	2	480	600	718	1000	congruent	450	-35	35	336785	0	-1	1	333869	0	1	2	-999999	1	335335	0	2	416	335751		PracTrialProc	TrialList	?	right	stimuli\	rrrrr	480	up	26	2	88	26	double
ANT_fMRI_Run1	1	1	<?xml version="1.0"?>\n<Clock xmlns:dt="urn:schemas-microsoft-com:datatypes"><Description dt:dt="string">E-Prime Primary Realtime Clock</Description><StartTime><Timestamp dt:dt="int">0</Timestamp><DateUtc dt:dt="string">2017-05-20T05:19:03Z</DateUtc></StartTime><FrequencyChanges><FrequencyChange><Frequency dt:dt="r8">3312675</Frequency><Timestamp dt:dt="r8">54156963611</Timestamp><Current dt:dt="r8">0</Current><DateUtc dt:dt="string">2017-05-20T05:19:03Z</DateUtc></FrequencyChange></FrequencyChanges></Clock>\n	ANT_fMRI_Run1-1-1	60.003	1.0.0.84	0		-999999	6	366317	0	{ENTER}	6118	372435	1	0		-999999	87	3583	0	1	1435	-1676938189	Professional	2.0.10.356	2.0.10.356	05-20-2017	2017/5/20 5:19:04	13:19:04	2.0.10.252	-999999	12082	49	5067	0	2	2	1	2	?	BlockProc	BlockList	41	21	2	480	-140	688	1000	neutral	450	-36	36	340418	0	-1	1	337469	0	1	2	-999999	3	339035	0	2	348	339383		PracTrialProc	TrialList	?	right	stimuli\	ooroo	480	up	42	2	89	42	up
ANT_fMRI_Run1	1	1	<?xml version="1.0"?>\n<Clock xmlns:dt="urn:schemas-microsoft-com:datatypes"><Description dt:dt="string">E-Prime Primary Realtime Clock</Description><StartTime><Timestamp dt:dt="int">0</Timestamp><DateUtc dt:dt="string">2017-05-20T05:19:03Z</DateUtc></StartTime><FrequencyChanges><FrequencyChange><Frequency dt:dt="r8">3312675</Frequency><Timestamp dt:dt="r8">54156963611</Timestamp><Current dt:dt="r8">0</Current><DateUtc dt:dt="string">2017-05-20T05:19:03Z</DateUtc></FrequencyChange></FrequencyChanges></Clock>\n	ANT_fMRI_Run1-1-1	60.003	1.0.0.84	0		-999999	6	366317	0	{ENTER}	6118	372435	1	0		-999999	87	3583	0	1	1435	-1676938189	Professional	2.0.10.356	2.0.10.356	05-20-2017	2017/5/20 5:19:04	13:19:04	2.0.10.252	-999999	12082	49	5067	0	2	2	1	2	?	BlockProc	BlockList	42	16	2	600	480	647	1000	congruent	450	-30	30	344068	0	-15	15	341085	0	1	2	-999999	16	342602	0	2	437	343039		PracTrialProc	TrialList	?	right	stimuli\	rrrrr	600	down	32	2	90	32	double
ANT_fMRI_Run1	1	1	<?xml version="1.0"?>\n<Clock xmlns:dt="urn:schemas-microsoft-com:datatypes"><Description dt:dt="string">E-Prime Primary Realtime Clock</Description><StartTime><Timestamp dt:dt="int">0</Timestamp><DateUtc dt:dt="string">2017-05-20T05:19:03Z</DateUtc></StartTime><FrequencyChanges><FrequencyChange><Frequency dt:dt="r8">3312675</Frequency><Timestamp dt:dt="r8">54156963611</Timestamp><Current dt:dt="r8">0</Current><DateUtc dt:dt="string">2017-05-20T05:19:03Z</DateUtc></FrequencyChange></FrequencyChanges></Clock>\n	ANT_fMRI_Run1-1-1	60.003	1.0.0.84	0		-999999	6	366317	0	{ENTER}	6118	372435	1	0		-999999	87	3583	0	1	1435	-1676938189	Professional	2.0.10.356	2.0.10.356	05-20-2017	2017/5/20 5:19:04	13:19:04	2.0.10.252	-999999	12082	49	5067	0	2	2	1	2	?	BlockProc	BlockList	43	5	2	-140	-140	539	1000	incongruent	450	-35	35	347785	0	0	0	344685	0	1	2	-999999	5	346235	0	2	516	346751		PracTrialProc	TrialList	?	right	stimuli\	llrll	600	down	10	2	91	10	no
ANT_fMRI_Run1	1	1	<?xml version="1.0"?>\n<Clock xmlns:dt="urn:schemas-microsoft-com:datatypes"><Description dt:dt="string">E-Prime Primary Realtime Clock</Description><StartTime><Timestamp dt:dt="int">0</Timestamp><DateUtc dt:dt="string">2017-05-20T05:19:03Z</DateUtc></StartTime><FrequencyChanges><FrequencyChange><Frequency dt:dt="r8">3312675</Frequency><Timestamp dt:dt="r8">54156963611</Timestamp><Current dt:dt="r8">0</Current><DateUtc dt:dt="string">2017-05-20T05:19:03Z</DateUtc></FrequencyChange></FrequencyChanges></Clock>\n	ANT_fMRI_Run1-1-1	60.003	1.0.0.84	0		-999999	6	366317	0	{ENTER}	6118	372435	1	0		-999999	87	3583	0	1	1435	-1676938189	Professional	2.0.10.356	2.0.10.356	05-20-2017	2017/5/20 5:19:04	13:19:04	2.0.10.252	-999999	12082	49	5067	0	2	2	1	2	?	BlockProc	BlockList	44	16	1	600	480	829	1000	congruent	450	-39	39	351101	0	-12	12	348301	0	1	1	-999999	3	349651	0	1	412	350063		PracTrialProc	TrialList	?	left	stimuli\	lllll	600	down	31	2	92	31	double
ANT_fMRI_Run1	1	1	<?xml version="1.0"?>\n<Clock xmlns:dt="urn:schemas-microsoft-com:datatypes"><Description dt:dt="string">E-Prime Primary Realtime Clock</Description><StartTime><Timestamp dt:dt="int">0</Timestamp><DateUtc dt:dt="string">2017-05-20T05:19:03Z</DateUtc></StartTime><FrequencyChanges><FrequencyChange><Frequency dt:dt="r8">3312675</Frequency><Timestamp dt:dt="r8">54156963611</Timestamp><Current dt:dt="r8">0</Current><DateUtc dt:dt="string">2017-05-20T05:19:03Z</DateUtc></FrequencyChange></FrequencyChanges></Clock>\n	ANT_fMRI_Run1-1-1	60.003	1.0.0.84	0		-999999	6	366317	0	{ENTER}	6118	372435	1	0		-999999	87	3583	0	1	1435	-1676938189	Professional	2.0.10.356	2.0.10.356	05-20-2017	2017/5/20 5:19:04	13:19:04	2.0.10.252	-999999	12082	49	5067	0	2	2	1	2	?	BlockProc	BlockList	45	18	2	600	480	896	1000	neutral	450	-28	28	354634	0	-10	10	351901	0	1	2	-999999	12	353185	0	2	422	353607		PracTrialProc	TrialList	?	right	stimuli\	ooroo	600	down	36	2	93	36	double
ANT_fMRI_Run1	1	1	<?xml version="1.0"?>\n<Clock xmlns:dt="urn:schemas-microsoft-com:datatypes"><Description dt:dt="string">E-Prime Primary Realtime Clock</Description><StartTime><Timestamp dt:dt="int">0</Timestamp><DateUtc dt:dt="string">2017-05-20T05:19:03Z</DateUtc></StartTime><FrequencyChanges><FrequencyChange><Frequency dt:dt="r8">3312675</Frequency><Timestamp dt:dt="r8">54156963611</Timestamp><Current dt:dt="r8">0</Current><DateUtc dt:dt="string">2017-05-20T05:19:03Z</DateUtc></FrequencyChange></FrequencyChanges></Clock>\n	ANT_fMRI_Run1-1-1	60.003	1.0.0.84	0		-999999	6	366317	0	{ENTER}	6118	372435	1	0		-999999	87	3583	0	1	1435	-1676938189	Professional	2.0.10.356	2.0.10.356	05-20-2017	2017/5/20 5:19:04	13:19:04	2.0.10.252	-999999	12082	49	5067	0	2	2	1	2	?	BlockProc	BlockList	46	13	1	480	600	678	1000	congruent	450	-38	38	358468	0	-16	16	355518	0	1	1	-999999	7	356984	0	1	447	357431		PracTrialProc	TrialList	?	left	stimuli\	lllll	480	up	25	2	94	25	double
ANT_fMRI_Run1	1	1	<?xml version="1.0"?>\n<Clock xmlns:dt="urn:schemas-microsoft-com:datatypes"><Description dt:dt="string">E-Prime Primary Realtime Clock</Description><StartTime><Timestamp dt:dt="int">0</Timestamp><DateUtc dt:dt="string">2017-05-20T05:19:03Z</DateUtc></StartTime><FrequencyChanges><FrequencyChange><Frequency dt:dt="r8">3312675</Frequency><Timestamp dt:dt="r8">54156963611</Timestamp><Current dt:dt="r8">0</Current><DateUtc dt:dt="string">2017-05-20T05:19:03Z</DateUtc></FrequencyChange></FrequencyChanges></Clock>\n	ANT_fMRI_Run1-1-1	60.003	1.0.0.84	0		-999999	6	366317	0	{ENTER}	6118	372435	1	0		-999999	87	3583	0	1	1435	-1676938189	Professional	2.0.10.356	2.0.10.356	05-20-2017	2017/5/20 5:19:04	13:19:04	2.0.10.252	-999999	12082	49	5067	0	2	2	1	2	?	BlockProc	BlockList	47	14	1	480	600	189	1000	incongruent	450	-33	33	362551	0	-10	10	359118	0	0	1	-999999	0	361101	0	2	418	361519		PracTrialProc	TrialList	?	left	stimuli\	rrlrr	480	up	27	2	95	27	double
ANT_fMRI_Run1	1	1	<?xml version="1.0"?>\n<Clock xmlns:dt="urn:schemas-microsoft-com:datatypes"><Description dt:dt="string">E-Prime Primary Realtime Clock</Description><StartTime><Timestamp dt:dt="int">0</Timestamp><DateUtc dt:dt="string">2017-05-20T05:19:03Z</DateUtc></StartTime><FrequencyChanges><FrequencyChange><Frequency dt:dt="r8">3312675</Frequency><Timestamp dt:dt="r8">54156963611</Timestamp><Current dt:dt="r8">0</Current><DateUtc dt:dt="string">2017-05-20T05:19:03Z</DateUtc></FrequencyChange></FrequencyChanges></Clock>\n	ANT_fMRI_Run1-1-1	60.003	1.0.0.84	0		-999999	6	366317	0	{ENTER}	6118	372435	1	0		-999999	87	3583	0	1	1435	-1676938189	Professional	2.0.10.356	2.0.10.356	05-20-2017	2017/5/20 5:19:04	13:19:04	2.0.10.252	-999999	12082	49	5067	0	2	2	1	2	?	BlockProc	BlockList	48	14	2	480	600	897	1000	incongruent	450	-37	37	365451	0	-10	10	362717	0	1	2	-999999	5	363917	0	2	498	364415		PracTrialProc	TrialList	?	right	stimuli\	llrll	480	up	28	2	96	28	double
ANT_fMRI_Run1	2	1	<?xml version="1.0"?>\n<Clock xmlns:dt="urn:schemas-microsoft-com:datatypes"><Description dt:dt="string">E-Prime Primary Realtime Clock</Description><StartTime><Timestamp dt:dt="int">0</Timestamp><DateUtc dt:dt="string">2017-05-20T06:05:59Z</DateUtc></StartTime><FrequencyChanges><FrequencyChange><Frequency dt:dt="r8">3312675</Frequency><Timestamp dt:dt="r8">63485249708</Timestamp><Current dt:dt="r8">0</Current><DateUtc dt:dt="string">2017-05-20T06:05:59Z</DateUtc></FrequencyChange></FrequencyChanges></Clock>\n	ANT_fMRI_Run1-2-1	60.003	1.0.0.84	0		-999999	0	381483	0	{ESCAPE}	1452	382935	1	0		-999999	88	8233	0	1	8981	-938621104	Professional	2.0.10.356	2.0.10.356	05-20-2017	2017/5/20 6:06:00	14:06:00	2.0.10.252	-999999	27230	86	17300	0	1	1	1	1	?	BlockProc	BlockList	1	22	1	600	-140	254	1000	congruent	450	-43	43	38632	0	-2	2	35232	1184	1	1	-999999	14	37016	0	1	574	37590		PracTrialProc	TrialList	?	left	stimuli\	lllll	600	down	43	1	1	43	down
ANT_fMRI_Run1	2	1	<?xml version="1.0"?>\n<Clock xmlns:dt="urn:schemas-microsoft-com:datatypes"><Description dt:dt="string">E-Prime Primary Realtime Clock</Description><StartTime><Timestamp dt:dt="int">0</Timestamp><DateUtc dt:dt="string">2017-05-20T06:05:59Z</DateUtc></StartTime><FrequencyChanges><FrequencyChange><Frequency dt:dt="r8">3312675</Frequency><Timestamp dt:dt="r8">63485249708</Timestamp><Current dt:dt="r8">0</Current><DateUtc dt:dt="string">2017-05-20T06:05:59Z</DateUtc></FrequencyChange></FrequencyChanges></Clock>\n	ANT_fMRI_Run1-2-1	60.003	1.0.0.84	0		-999999	0	381483	0	{ESCAPE}	1452	382935	1	0		-999999	88	8233	0	1	8981	-938621104	Professional	2.0.10.356	2.0.10.356	05-20-2017	2017/5/20 6:06:00	14:06:00	2.0.10.252	-999999	27230	86	17300	0	1	1	1	1	?	BlockProc	BlockList	2	1	1	-140	-140	29	1000	congruent	450	0	28	42449	0	-6	6	38849	1366	1	1	-999999	8	40815	0	1	607	41422		PracTrialProc	TrialList	?	left	stimuli\	lllll	480	up	1	1	2	1	no
ANT_fMRI_Run1	2	1	<?xml version="1.0"?>\n<Clock xmlns:dt="urn:schemas-microsoft-com:datatypes"><Description dt:dt="string">E-Prime Primary Realtime Clock</Description><StartTime><Timestamp dt:dt="int">0</Timestamp><DateUtc dt:dt="string">2017-05-20T06:05:59Z</DateUtc></StartTime><FrequencyChanges><FrequencyChange><Frequency dt:dt="r8">3312675</Frequency><Timestamp dt:dt="r8">63485249708</Timestamp><Current dt:dt="r8">0</Current><DateUtc dt:dt="string">2017-05-20T06:05:59Z</DateUtc></FrequencyChange></FrequencyChanges></Clock>\n	ANT_fMRI_Run1-2-1	60.003	1.0.0.84	0		-999999	0	381483	0	{ESCAPE}	1452	382935	1	0		-999999	88	8233	0	1	8981	-938621104	Professional	2.0.10.356	2.0.10.356	05-20-2017	2017/5/20 6:06:00	14:06:00	2.0.10.252	-999999	27230	86	17300	0	1	1	1	1	?	BlockProc	BlockList	3	12	2	540	-140	137	1000	neutral	450	-37	40	45965	0	-32	32	42482	1450	1	2	-999999	13	44532	0	2	394	44926		PracTrialProc	TrialList	?	right	stimuli\	ooroo	600	down	24	1	3	24	center
ANT_fMRI_Run1	2	1	<?xml version="1.0"?>\n<Clock xmlns:dt="urn:schemas-microsoft-com:datatypes"><Description dt:dt="string">E-Prime Primary Realtime Clock</Description><StartTime><Timestamp dt:dt="int">0</Timestamp><DateUtc dt:dt="string">2017-05-20T06:05:59Z</DateUtc></StartTime><FrequencyChanges><FrequencyChange><Frequency dt:dt="r8">3312675</Frequency><Timestamp dt:dt="r8">63485249708</Timestamp><Current dt:dt="r8">0</Current><DateUtc dt:dt="string">2017-05-20T06:05:59Z</DateUtc></FrequencyChange></FrequencyChanges></Clock>\n	ANT_fMRI_Run1-2-1	60.003	1.0.0.84	0		-999999	0	381483	0	{ESCAPE}	1452	382935	1	0		-999999	88	8233	0	1	8981	-938621104	Professional	2.0.10.356	2.0.10.356	05-20-2017	2017/5/20 6:06:00	14:06:00	2.0.10.252	-999999	27230	86	17300	0	1	1	1	1	?	BlockProc	BlockList	4	13	1	480	600	532	1000	congruent	450	-32	32	49165	0	-3	3	46065	1017	1	1	-999999	4	47682	0	1	452	48134		PracTrialProc	TrialList	?	left	stimuli\	lllll	480	up	25	1	4	25	double
ANT_fMRI_Run1	2	1	<?xml version="1.0"?>\n<Clock xmlns:dt="urn:schemas-microsoft-com:datatypes"><Description dt:dt="string">E-Prime Primary Realtime Clock</Description><StartTime><Timestamp dt:dt="int">0</Timestamp><DateUtc dt:dt="string">2017-05-20T06:05:59Z</DateUtc></StartTime><FrequencyChanges><FrequencyChange><Frequency dt:dt="r8">3312675</Frequency><Timestamp dt:dt="r8">63485249708</Timestamp><Current dt:dt="r8">0</Current><DateUtc dt:dt="string">2017-05-20T06:05:59Z</DateUtc></FrequencyChange></FrequencyChanges></Clock>\n	ANT_fMRI_Run1-2-1	60.003	1.0.0.84	0		-999999	0	381483	0	{ESCAPE}	1452	382935	1	0		-999999	88	8233	0	1	8981	-938621104	Professional	2.0.10.356	2.0.10.356	05-20-2017	2017/5/20 6:06:00	14:06:00	2.0.10.252	-999999	27230	86	17300	0	1	1	1	1	?	BlockProc	BlockList	5	6	1	-140	-140	896	1000	neutral	450	-34	34	52415	0	0	0	49665	483	1	1	-999999	13	50748	0	1	634	51382		PracTrialProc	TrialList	?	left	stimuli\	ooloo	600	down	11	1	5	11	no
